"Time (s)","Linear Acceleration x (m/s^2)","Linear Acceleration y (m/s^2)","Linear Acceleration z (m/s^2)","Absolute acceleration (m/s^2)"
5.965458346E-3,3.310902175E-1,-7.728422803E-1,-1.172664946E-1,8.489153981E-1
1.602645835E-2,3.616409691E-1,-1.039625003E0,2.789577949E-1,1.135527097E0
2.608845825E-2,5.065295643E-1,-1.374388624E0,3.984532481E-1,1.517985929E0
3.614945826E-2,8.058990023E-1,-1.861560506E0,8.771525145E-2,2.030412442E0
4.621045827E-2,8.697016999E-1,-2.150928976E0,-5.254682207E-1,2.378863879E0
5.627145828E-2,7.786314623E-1,-2.377662364E0,-1.250793688E0,2.797146782E0
6.633245829E-2,4.687670031E-1,-2.536085071E0,-1.860223832E0,3.179921806E0
7.639345829E-2,-5.318561576E-2,-2.702386316E0,-2.298262730E0,3.547919402E0
8.645545831E-2,-9.214059236E-1,-3.007920291E0,-2.452406445E0,3.988843281E0
9.651645832E-2,-1.120947639E0,-3.309404776E0,-2.456380212E0,4.271122491E0
1.065774583E-1,1.841396382E-1,-4.196897214E0,-1.519021257E0,4.467133221E0
1.166384583E-1,6.412067648E-2,-4.636302607E0,-4.942961293E-1,4.663018549E0
1.266994583E-1,4.733825393E-1,-5.198679914E0,2.679077268E-1,5.227058296E0
1.367614584E-1,1.249527912E0,-5.582751936E0,1.266577077E-1,5.722279384E0
1.468224584E-1,8.118836275E-1,-5.707975906E0,-3.273119295E-1,5.774710129E0
1.568834583E-1,-4.123139267E-1,-5.292452881E0,-1.043718054E0,5.410120854E0
1.669444583E-1,-1.958322277E0,-4.314159324E0,-1.828397437E0,5.078388918E0
1.770054583E-1,-3.105703278E0,-2.978489500E0,-2.323820910E0,4.890494471E0
1.870664583E-1,-3.691610951E0,-1.771628575E0,-1.902422603E0,4.515071536E0
1.971284583E-1,-3.560989123E0,-5.128116301E-1,-5.539008915E-1,3.640113391E0
2.071894583E-1,-3.033677568E0,7.621959624E-1,8.809415102E-2,3.129201631E0
2.172504583E-1,-2.984487281E0,2.016889451E0,3.134253770E-1,3.615693966E0
2.273114583E-1,-2.564358990E0,3.236842292E0,1.710538035E0,4.469790310E0
2.373724583E-1,-1.085892412E0,5.866062398E0,2.859677879E0,6.615709180E0
2.474334583E-1,2.222251850E0,1.071246511E1,3.768287829E0,1.157131389E1
2.574954584E-1,5.306917139E0,1.395572735E1,5.351660033E0,1.586083102E1
2.675564584E-1,5.500147735E0,1.206342803E1,6.099915356E0,1.459407032E1
2.776174583E-1,3.575170668E0,7.993756585E0,5.672772160E0,1.043371140E1
2.876784583E-1,1.137628869E0,4.974334529E0,4.523764463E0,6.819285033E0
2.977394583E-1,-2.214422429E0,9.292377573E-1,3.160350478E0,3.969252404E0
3.078014583E-1,-4.573864576E0,-1.793794200E0,2.227466982E0,5.394399313E0
3.178624583E-1,-6.596564990E0,-2.728616048E0,1.829465139E0,7.369325471E0
3.279234583E-1,-8.408011349E0,-2.599634072E0,2.301797957E0,9.096759092E0
3.379844583E-1,-1.026739961E1,-1.198790306E-1,3.772259842E0,1.093909549E1
3.480454583E-1,-8.609932662E0,1.390495949E0,4.084906370E0,9.630725803E0
3.581064583E-1,-5.909017798E0,1.126534800E0,3.389253184E0,6.904535404E0
3.681684583E-1,-4.192184359E0,5.362431774E-1,2.164453293E0,4.748349661E0
3.782294584E-1,-3.728931389E0,-3.940397698E-1,1.363148521E0,3.989783270E0
3.882904584E-1,-3.746707510E0,-1.187094705E0,1.260487787E0,4.127449632E0
3.983514584E-1,-3.605433809E0,-1.887508987E0,9.747595006E-1,4.184734067E0
4.084124583E-1,-3.586001465E0,-2.683026769E0,-3.709532082E-1,4.493956546E0
4.184734583E-1,-2.655118302E0,-3.922190053E0,-3.737460723E0,6.033393793E0
4.285354583E-1,-2.704634278E0,-9.626206809E-1,-6.967417041E0,7.535687452E0
4.385964583E-1,-4.674804768E0,2.282826081E-1,-7.886717455E0,9.170944596E0
4.486574583E-1,-2.440333698E0,-9.498298967E-1,-2.711201870E0,3.769352859E0
4.587184583E-1,-8.116432339E-2,-2.835766860E0,2.196164498E0,3.587659381E0
4.687794583E-1,2.167834446E0,-3.341627612E0,2.296817299E0,4.597972486E0
4.788414583E-1,1.997611181E0,-2.229824579E0,5.972030903E0,6.680398280E0
4.889024583E-1,2.493001324E-1,-1.624222899E0,6.149175809E0,6.364951980E0
4.989634583E-1,7.504603082E-1,-1.525243572E0,5.589400805E0,5.842170828E0
5.090244584E-1,2.961181449E0,-8.026043156E-1,3.563696092E0,4.702414178E0
5.190854584E-1,6.168456418E0,5.606985721E-1,-5.834895569E-1,6.221309953E0
5.291464583E-1,6.947210818E0,1.563160134E0,-4.492255572E0,8.419475511E0
5.392084583E-1,6.026518766E0,1.255125013E0,-6.818929338E0,9.186515366E0
5.492694583E-1,4.859508078E0,1.032876731E0,-7.331309736E0,8.856057562E0
5.593304583E-1,3.258666732E0,-1.066941732E0,-6.919350590E0,7.722349779E0
5.693914583E-1,1.915734959E0,-5.227009674E0,-3.611554967E0,6.635887269E0
5.794524583E-1,6.906514782E-1,-6.064309906E0,-4.030275249E0,7.314094112E0
5.895144583E-1,1.994614483E0,-6.544161658E0,-2.905157522E0,7.432662980E0
5.995754583E-1,5.247806466E0,-9.029875013E0,-2.958313975E0,1.085494067E1
6.096364583E-1,-3.439210625E0,-7.743201640E0,-6.212628039E0,1.050628805E1
6.196974583E-1,-1.310615148E1,-3.556889933E0,-3.782008320E0,1.409703016E1
6.297584584E-1,-1.065015367E1,-2.926550438E0,-9.171182334E-1,1.108294079E1
6.398194584E-1,-3.217944383E0,-2.713403347E0,1.872074969E0,4.606776364E0
6.498814583E-1,-1.827985209E0,-2.970862100E0,7.942308104E-1,3.577478738E0
6.599424583E-1,-5.118012312E0,-3.711300572E0,5.915201229E-1,6.349621880E0
6.700034583E-1,-5.755575165E0,-3.230172665E0,-3.601884842E-3,6.600051053E0
6.800644583E-1,-5.431134803E0,-1.763451244E0,-1.322175912E0,5.861325335E0
6.901254583E-1,-3.427749497E0,-1.047264536E0,-1.650169042E0,3.945793645E0
7.001864583E-1,-2.315672230E0,-2.098267782E0,-7.305300736E-1,3.209164962E0
7.102484583E-1,-3.280922404E0,-3.236775926E0,2.171462350E0,5.094744248E0
7.203094583E-1,-4.944773346E0,-3.030690225E0,3.961649403E0,7.023569796E0
7.303704583E-1,-5.202934933E0,-3.250113425E0,4.200192997E0,7.434742121E0
7.404314583E-1,-3.637312537E0,-3.459279438E0,5.232604290E0,7.250986442E0
7.504924583E-1,-1.984392965E0,-2.528155954E0,5.590910556E0,6.448850193E0
7.605544584E-1,-1.943926724E0,-4.399785365E0,6.289711883E0,7.918171376E0
7.706154583E-1,-3.659772862E0,-6.583466057E0,6.495487096E0,9.946221159E0
7.806764583E-1,-2.566658700E0,-5.009596163E0,8.029958451E0,9.806325679E0
7.907374583E-1,2.270782571E0,-2.174272522E0,1.006355632E1,1.054320067E1
8.007984583E-1,6.043819508E0,-3.063017142E-1,1.099467864E1,1.255008101E1
8.108594583E-1,8.526409280E0,9.431915528E-1,1.181895244E1,1.460400295E1
8.209214583E-1,1.064627346E1,1.161513721E0,8.912220263E0,1.393269259E1
8.309824583E-1,1.170145030E1,2.118826885E0,1.666747652E0,1.200797295E1
8.410434583E-1,1.024852948E1,3.639916302E0,-3.200027345E0,1.133673331E1
8.511044583E-1,8.016875306E0,-8.408763885E-2,-2.840951878E0,8.505784384E0
8.611654583E-1,1.538182115E1,2.640857527E0,4.931337029E0,1.636742604E1
8.712274584E-1,2.292233432E1,6.925509462E0,3.037252848E0,2.413754331E1
8.812884167E-1,1.820782491E1,8.079878470E0,-4.964762052E0,2.052944681E1
8.913494167E-1,1.164727468E1,6.803766924E0,-6.200168207E0,1.484561678E1
9.014104167E-1,7.537692475E0,2.612599103E0,-4.671765093E0,9.244883504E0
9.114714166E-1,2.973724312E0,-1.056847976E0,-2.847923221E0,4.250956433E0
9.215334166E-1,8.728127110E-1,-2.841350366E0,-7.722087345E-1,3.071055236E0
9.315944166E-1,9.684228730E-1,-2.824303978E0,1.181541897E0,3.211008732E0
9.416554166E-1,1.372007053E0,-1.067408633E0,8.258107451E-1,1.924507191E0
9.517164166E-1,3.705033819E0,3.713537425E-1,1.792314854E0,4.132501874E0
9.617774166E-1,4.199632834E0,8.718134218E-1,2.742272220E0,5.090877283E0
9.718384166E-1,6.974050122E-1,-8.209636956E-1,2.853647645E0,3.050190162E0
9.819004167E-1,-1.889282740E0,-6.285973173E-1,5.779417187E-1,2.073292186E0
9.919614167E-1,-7.768201411E-1,1.441106524E0,3.138396522E-1,1.666953170E0
1.002022417E0,-2.742059089E0,-6.356473053E-1,1.847074614E0,3.366692765E0
1.012083417E0,-3.656755114E-1,-1.767149608E0,7.512230775E-1,1.954705202E0
1.022144417E0,9.671002328E-2,4.449286723E-1,9.074573176E-1,1.015279831E0
1.032206417E0,2.558358869E0,4.553044395E0,4.918454151E-1,5.245695882E0
1.042267417E0,3.284526043E0,7.872007615E0,2.142619644E0,8.794739004E0
1.052328417E0,2.543547287E0,7.969774815E0,1.238165895E0,8.456949697E0
1.062389417E0,1.177830084E0,5.999215778E0,-5.685138144E-1,6.140120651E0
1.072450417E0,-1.000048124E0,4.621754442E0,-1.567653865E0,4.981791747E0
1.082511417E0,-1.586980813E0,3.363134256E0,-1.297234175E0,3.938527216E0
1.092573417E0,-1.410957988E0,2.801912066E0,-2.020546884E0,3.731504171E0
1.102634417E0,-1.418601760E-1,3.040933378E0,-4.005084275E0,5.030715671E0
1.112695417E0,2.874161432E0,6.669443516E0,-1.667565239E0,7.451379374E0
1.122756417E0,1.936159868E0,6.871991066E0,-3.003140484E0,7.745439240E0
1.132817417E0,1.551343788E0,4.359070033E-1,-2.051254706E0,2.608510750E0
1.142879417E0,-2.960301736E0,-1.925386373E0,3.343266879E0,4.862913990E0
1.152940417E0,-3.272957619E0,-1.797393161E0,3.343247583E0,5.012003407E0
1.163001417E0,-1.291689991E0,-2.241648819E0,2.788369037E0,3.803742151E0
1.173062417E0,-4.179370478E-1,-2.535521691E0,3.848903391E0,4.627915182E0
1.183123417E0,-1.384156105E0,-1.879123787E0,3.408530869E0,4.130989835E0
1.193184417E0,-1.777322009E0,-1.659746196E0,1.648033054E0,2.937625556E0
1.203246417E0,-3.677758312E-1,-1.382692255E0,1.201187518E0,1.868140355E0
1.213307417E0,1.028823441E0,-1.914113526E0,6.476864299E-1,2.267555065E0
1.223368417E0,1.217925319E0,-1.594047466E0,4.169912606E-1,2.048953664E0
1.233429417E0,-6.898732138E-1,-1.302215272E0,3.626326203E-2,1.474111491E0
1.243490417E0,-1.641129831E0,-1.374983870E0,2.160569572E-1,2.151875548E0
1.253552417E0,-1.697824726E0,-1.015332161E0,-7.987556782E-1,2.133428891E0
1.263613417E0,-1.159220736E0,-2.969701427E-1,-1.168418260E0,1.672478762E0
1.273674417E0,-1.884934750E-1,-2.971619314E-1,-7.275684589E-1,8.082022433E-1
1.283735417E0,-1.322900382E-1,-4.422389531E-1,-5.216858031E-1,6.965859767E-1
1.293796417E0,-4.972764552E-1,5.396939117E-1,-8.451368161E-1,1.119289788E0
1.303857417E0,1.665526754E-1,8.995537823E-1,-8.809311314E-1,1.270030102E0
1.313919417E0,7.328581426E-1,6.822385043E-1,-6.157663335E-1,1.175456767E0
1.323980417E0,1.435136517E0,-3.901268131E-1,-5.658572781E-1,1.591229151E0
1.334041417E0,3.044128589E0,-5.074149424E-1,1.498885493E-1,3.089766232E0
1.344102417E0,2.922918147E0,9.639427364E-2,1.954103657E0,3.517280690E0
1.354163417E0,1.905937949E0,3.086897171E-1,2.361140764E0,3.050061395E0
1.364225417E0,1.351841176E0,5.543055189E-1,1.305073391E0,1.959067566E0
1.374286417E0,1.649651856E0,-1.576801103E-1,7.913222592E-1,1.836410951E0
1.384347417E0,-1.254710153E0,-1.254383293E0,2.503863696E0,3.068730751E0
1.394408417E0,-4.865849091E0,-1.096469879E-2,1.511175609E0,5.095121129E0
1.404469417E0,-3.539966044E0,1.093822845E0,-5.107950716E-1,3.740149678E0
1.414530417E0,-4.551022428E-1,1.234101641E-1,-4.295269601E-1,6.378413043E-1
1.424592417E0,-3.576648259E-1,9.828637415E-1,-9.912305224E-1,1.441000767E0
1.434653417E0,-1.676103782E0,1.776960651E0,-3.044767982E0,3.903527265E0
1.444714417E0,-2.189906223E0,1.662285642E0,-3.512156979E0,4.460283563E0
1.454775417E0,-1.038989118E0,1.605132033E0,-3.000730847E0,3.558136147E0
1.464836417E0,-9.775781509E-1,2.199402101E0,-3.415656871E0,4.178485431E0
1.474898417E0,-8.487727609E-1,2.410136923E0,-3.414073445E0,4.264395933E0
1.484959417E0,-8.851424423E-1,2.566202032E0,-2.149426095E0,3.462499466E0
1.495020417E0,-9.716014194E-1,2.350038071E0,7.349803895E-2,2.544030309E0
1.505081417E0,-1.432175194E0,1.557209423E0,1.269580792E0,2.467359390E0
1.515142417E0,-8.833260047E-1,1.296094991E0,6.982987592E-1,1.716900758E0
1.525203417E0,-2.203575844E-1,1.066559617E0,-6.117634758E-1,1.249144280E0
1.535265417E0,1.113765943E-1,1.029098845E0,-1.305509008E0,1.666074113E0
1.545326417E0,-7.628485116E-1,1.438078836E0,-8.003899750E-1,1.814010116E0
1.555387417E0,-1.358269312E0,9.817983788E-1,2.005062872E-1,1.687905907E0
1.565448417E0,-2.068756300E0,5.805337894E-1,5.915391263E-1,2.228607334E0
1.575509417E0,-2.769153332E0,1.116702999E0,4.729350811E-1,3.023061918E0
1.585571417E0,-2.376831767E0,1.198159976E0,1.042914646E0,2.858773782E0
1.595632417E0,-1.310073637E0,1.144831030E0,1.132454814E0,2.075905809E0
1.605693417E0,-1.125452773E0,2.038001407E0,-2.336015278E-1,2.339799854E0
1.615754417E0,-1.990693632E0,4.058010347E0,-2.527499019E0,5.178663960E0
1.625815417E0,-5.709721885E0,2.931053086E0,-6.351819838E0,9.029817908E0
1.635876417E0,-1.696644466E0,1.673363192E0,4.414729679E-1,2.423560438E0
1.645938417E0,-5.279018319E0,1.303860678E0,1.449793732E-1,5.439586942E0
1.655999417E0,2.264825720E0,1.332545949E0,8.513123236E0,8.909454612E0
1.666060417E0,7.531238319E0,-3.070852411E-1,7.234034287E0,1.044725342E1
1.676121417E0,4.369714304E0,-9.215551007E-1,1.273025240E0,4.643733430E0
1.686182417E0,1.878192911E0,9.969040757E-1,-5.025247990E0,5.456605511E0
1.696244417E0,1.611320433E0,3.203164961E0,-6.722945539E0,7.619357980E0
1.706305417E0,5.818763101E-1,2.413106723E0,-4.002110381E0,4.709410961E0
1.716366417E0,-2.459569868E-1,-2.153757566E-1,-2.443098847E0,2.464875967E0
1.726427417E0,-6.120517436E-1,2.046193357E0,-2.724821790E0,3.462104616E0
1.736488417E0,-1.593687570E0,3.462346888E0,-2.956058704E0,4.823481015E0
1.746549417E0,-2.562933146E0,1.154928587E0,-2.538299704E-1,2.822572587E0
1.756611417E0,-3.702265162E0,-2.869996460E0,3.263385435E0,5.709056972E0
1.766672417E0,-3.134129809E0,-4.155987462E0,5.003472374E0,7.220092606E0
1.776733417E0,-1.034739069E0,-4.352936304E0,4.078929931E0,6.054453632E0
1.786794417E0,9.359278491E-1,-3.052150676E0,6.592069066E-1,3.259775826E0
1.796855417E0,3.287537359E0,-1.369409135E0,-1.886571971E0,4.030178292E0
1.806916417E0,4.326715050E0,-1.910684718E0,-1.199747495E0,4.879607901E0
1.816978417E0,4.646181478E0,-3.204836680E0,-5.101034921E-1,5.667290891E0
1.827039417E0,4.013676174E0,-4.000324057E0,3.433061108E-2,5.666865763E0
1.837100417E0,2.480495007E0,-3.952239479E0,-2.473455544E-1,4.672711440E0
1.847161417E0,1.873205236E-1,-3.623928845E0,-2.133052722E0,4.209259218E0
1.857222417E0,-2.057932227E0,-3.011828277E0,-3.199638505E0,4.852203745E0
1.867284417E0,-1.843686444E0,-3.892937602E0,-3.750302378E0,5.711296771E0
1.877345417E0,-3.475808055E0,-3.408073617E0,-3.611328095E0,6.061179590E0
1.887407167E0,-4.394281381E0,-6.638823402E-1,-2.503957252E0,5.101004855E0
1.897468167E0,-1.859295148E0,5.789842772E-1,5.853282139E-2,1.948236981E0
1.907529167E0,-3.086043477E-2,1.050244716E0,1.563510967E0,1.883754993E0
1.917590167E0,-2.826519196E-1,1.566243955E0,3.240487738E0,3.610231712E0
1.927652167E0,-1.160846262E-1,1.164057845E-1,4.373152467E0,4.376241361E0
1.937713167E0,-1.350424980E0,-8.766402984E-1,3.337219396E0,3.705290695E0
1.947774167E0,-1.121779406E0,-3.085066992E-1,7.790216178E-1,1.400157170E0
1.957835167E0,9.731357288E-1,7.327812517E-1,-1.155570100E0,1.679078249E0
1.967896167E0,1.021647884E0,6.337878907E-1,-2.572287229E0,2.839386039E0
1.977958167E0,-1.459534170E0,-1.133113210E0,-2.359033866E0,2.996535720E0
1.988019167E0,-4.507977566E0,-4.347995406E-1,-2.027450691E0,4.962002487E0
1.998080167E0,-3.633104003E0,7.259938037E-1,-2.344289673E0,4.384313603E0
2.008141167E0,1.587957591E0,1.593756275E0,-5.085001856E-1,2.306564721E0
2.018202167E0,4.872600870E0,3.990899515E0,1.172117647E0,6.406510591E0
2.028263167E0,4.160951748E0,5.248084794E0,-1.137807940E0,6.793417429E0
2.038325167E0,4.581162194E0,4.740281011E0,-1.375388498E0,6.734166959E0
2.048386167E0,5.357547010E0,4.406088079E0,-1.810094044E-1,6.938997516E0
2.058447167E0,5.656155542E0,3.738322018E0,7.972215881E-1,6.826617705E0
2.068508167E0,5.681609057E0,3.343720915E0,1.034031995E0,6.673108211E0
2.078569167E0,5.035801629E0,3.097998694E0,4.781525517E-1,5.931738685E0
2.088630167E0,3.964632068E0,2.586837441E0,3.718384767E-1,4.748504947E0
2.098692167E0,3.364398716E0,2.196893646E0,4.128527476E-1,4.039302886E0
2.108753167E0,3.059072610E0,3.122458767E0,-5.432502613E-1,4.404860364E0
2.118814167E0,3.241634962E0,4.017171639E0,-1.598441064E0,5.403783771E0
2.128875167E0,3.761202757E0,2.197764881E0,-6.251315995E-1,4.400864253E0
2.138936167E0,2.646748012E0,-8.668573219E-1,1.421793171E0,3.127013348E0
2.148998167E0,-4.081400380E-1,-5.143224337E0,2.340104236E0,5.665282226E0
2.159059167E0,-3.916994802E0,-9.523541982E0,4.654984753E0,1.130086648E1
2.169120167E0,-6.780103242E0,-1.110570323E1,4.622069607E0,1.380832979E1
2.179181167E0,-6.712676075E0,-1.084185347E1,3.071103256E0,1.311630596E1
2.189242167E0,-4.836330884E0,-9.614091963E0,6.972658485E-1,1.078457419E1
2.199303167E0,-3.034180721E0,-7.704646270E0,-2.665736845E0,8.699079245E0
2.209365167E0,-6.312162852E-1,-6.726766110E0,-3.733603899E0,7.719301418E0
2.219426167E0,9.783919372E-1,-7.306554964E0,-3.224817785E0,8.046269072E0
2.229487167E0,5.218939640E-2,-8.073037813E0,-1.971368877E0,8.310412656E0
2.239548167E0,-6.588338542E-1,-5.909457509E0,-1.878110465E0,6.235627395E0
2.249609167E0,-4.069030010E0,1.114727810E0,-8.290860629E-1,4.299651964E0
2.259671167E0,-2.935703377E0,3.958279068E0,-2.492703116E0,5.522671122E0
2.269732167E0,-4.280553621E-1,1.453927714E0,-3.414780958E0,3.736022775E0
2.279793167E0,1.562694257E0,-6.179980695E-2,-2.594680896E0,3.029554672E0
2.289854167E0,1.757160955E0,-1.429021499E0,-3.305148880E-1,2.288876833E0
2.299915167E0,3.333454082E0,-2.368198938E0,2.096371969E0,4.595112377E0
2.309976167E0,4.913275710E-1,-8.855140328E-2,3.273803419E0,3.311651093E0
2.320038167E0,-2.864647135E0,1.173232711E0,3.462123524E0,4.644241326E0
2.330099167E0,-3.411451845E0,2.271985343E0,3.124110020E0,5.153637988E0
2.340160167E0,-2.756486217E0,2.882587270E0,3.094132223E0,5.047888652E0
2.350221167E0,-1.168269814E0,2.780082071E-1,3.489384413E0,3.690250195E0
2.360282167E0,-7.682084350E-1,-1.982410759E-1,3.192106122E0,3.289222585E0
2.370344167E0,-2.954011301E0,2.039502972E0,2.040744921E0,4.129212391E0
2.380405167E0,-3.700988715E0,2.057929303E0,1.643440651E0,4.542387881E0
2.390466167E0,-3.398806365E0,2.328103411E0,2.299207056E-1,4.126113635E0
2.400527167E0,-2.606188216E0,1.537026588E0,-1.180996059E0,3.247986983E0
2.410588167E0,-3.305602039E0,2.423942783E0,-3.528616891E0,5.408663478E0
2.420649167E0,-4.742532482E0,6.330051239E0,-2.772880640E0,8.381529101E0
2.430711167E0,-4.850670303E0,1.059776847E1,-2.396260310E0,1.189889753E1
2.440772167E0,-2.975787794E0,1.118038387E1,-2.636727639E0,1.186628118E1
2.450833167E0,-1.410362156E0,1.141327730E1,-2.470935686E0,1.176254833E1
2.460894167E0,2.836959399E-1,1.141939933E1,-1.707506838E0,1.154983740E1
2.470955167E0,1.867914675E0,9.959351921E0,-8.502605850E-1,1.016861539E1
2.481016167E0,3.391468694E0,8.451121116E0,1.622409020E-1,9.107679733E0
2.491078167E0,5.236797913E0,7.247298696E0,1.117756668E0,9.010925077E0
2.501139167E0,6.533680524E0,6.396489058E0,2.344560399E0,9.439333500E0
2.511200167E0,7.571414537E0,6.542204595E0,3.054694215E0,1.046221371E1
2.521261167E0,8.909209532E0,6.228737118E0,2.188177786E0,1.108870157E1
2.531322167E0,9.682201501E0,4.888920157E0,6.292013347E-2,1.084668268E1
2.541384167E0,8.907295153E0,4.240938150E0,-1.175753446E0,9.935182912E0
2.551445167E0,6.576700829E0,3.269104012E0,-5.546994750E-1,7.365305583E0
2.561506167E0,3.994158168E0,2.209886743E0,1.930294526E-1,4.568824713E0
2.571567167E0,2.463992702E0,5.641072065E-1,1.344821155E0,2.863218629E0
2.581628167E0,1.191611241E0,-1.028243397E0,2.162470502E0,2.674602869E0
2.591689167E0,-2.577655119E-1,-1.695017771E0,2.522854283E0,3.050298680E0
2.601751167E0,-4.888762721E-1,-2.326538696E0,2.339386198E0,3.335342575E0
2.611812167E0,-1.142185092E0,-2.070236523E0,3.336877334E0,4.089647465E0
2.621873167E0,-1.455566542E0,-2.048699473E0,3.444700575E0,4.264012845E0
2.631934167E0,1.689521534E-1,-5.696259840E0,9.792410991E-1,5.782286237E0
2.641995167E0,1.713626242E0,-7.465145486E0,-1.179591119E0,7.749603037E0
2.652057167E0,-7.458106023E-1,-8.746804286E0,-5.730049145E-1,8.797224182E0
2.662118167E0,-1.090496217E0,-1.248987834E1,1.934797466E0,1.268580640E1
2.672179167E0,9.041324446E-1,-1.837258074E1,4.195624276E0,1.886723195E1
2.682240167E0,3.771176353E0,-2.398936698E1,5.955421886E0,2.500357073E1
2.692301167E0,6.118852149E0,-2.790466726E1,7.655006917E0,2.957549555E1
2.702362167E0,7.282675520E0,-2.996707144E1,7.284538443E0,3.168796670E1
2.712424167E0,6.811213937E0,-2.954224081E1,4.005295067E0,3.058069679E1
2.722485167E0,4.628599777E0,-2.208680931E1,3.057868084E0,2.277282676E1
2.732546167E0,1.740612896E0,-1.113822544E1,2.063131863E0,1.146064188E1
2.742607167E0,-2.210848318E0,-1.087848744E0,1.480044887E0,2.874334365E0
2.752668167E0,-4.745592330E0,5.835748678E0,7.723645627E-2,7.522138969E0
2.762730167E0,-2.868834911E0,6.780248253E0,-1.905125186E0,7.604701315E0
2.772791167E0,-8.330461628E-1,7.230805455E0,-2.597719694E0,7.728302598E0
2.782852167E0,6.519557744E-1,7.735256444E0,-2.658562312E0,8.205314872E0
2.792913167E0,3.466124774E0,8.761097220E0,-7.066753634E0,1.177751469E1
2.802974167E0,5.416678732E0,9.721532797E0,-1.391796837E1,1.782016981E1
2.813035167E0,4.082472759E0,9.528990417E0,-1.829740894E1,2.103005982E1
2.823097167E0,3.565287704E0,9.901045825E0,-1.080522066E1,1.508293003E1
2.833158167E0,3.450856524E0,9.630140231E0,-6.380095804E0,1.205626949E1
2.843219167E0,3.741809882E0,9.862278786E0,-4.363453398E0,1.141513949E1
2.853280167E0,3.275834742E0,1.060974590E1,-2.700064679E0,1.142751726E1
2.863341167E0,2.889836063E0,1.029117439E1,-9.757362780E-1,1.073366126E1
2.873402167E0,2.440691694E0,9.551140839E0,5.142333806E-1,9.871459023E0
2.883463958E0,2.209688961E0,8.650922813E0,5.095860136E-1,8.943202376E0
2.893524958E0,3.631928128E0,6.281915790E0,-7.334604058E-1,7.293238793E0
2.903585958E0,4.266128540E0,7.016755262E0,-5.648844476E-1,8.231269742E0
2.913646958E0,4.364004498E0,8.488457927E0,-1.240501419E0,9.624827115E0
2.923707958E0,4.324526437E0,9.213363563E0,-1.142678670E0,1.024174358E1
2.933768958E0,4.370380887E0,9.615342098E0,3.200108036E-2,1.056201007E1
2.943830958E0,4.459460878E0,9.046849480E0,9.234905291E-1,1.012843086E1
2.953891958E0,4.416307550E0,6.811433208E0,6.872630167E-1,8.146884385E0
2.963952958E0,3.275397955E0,3.716914777E0,-5.589430918E-1,4.985589694E0
2.974013958E0,1.136425146E0,6.831763977E-1,-2.003294089E0,2.402369520E0
2.984074958E0,-1.854921577E0,-1.495134212E0,-2.938256563E0,3.782791562E0
2.994136958E0,-4.071400471E0,-4.622543231E0,-2.446918248E0,6.628092986E0
3.004197958E0,-5.102660447E0,-9.676354870E0,-6.805822805E-1,1.096048263E1
3.014258958E0,-5.124939508E0,-1.508975975E1,1.166586766E0,1.597894799E1
3.024319958E0,-4.531669606E0,-1.896753610E1,2.687524155E0,1.968568620E1
3.034380958E0,-3.824686270E0,-2.020080159E1,3.468463660E0,2.085020024E1
3.044441958E0,-2.791825619E0,-1.912705165E1,3.560022871E0,1.965482531E1
3.054503958E0,-8.922695404E-1,-1.609058321E1,3.051586420E0,1.640168262E1
3.064564958E0,1.039734857E0,-1.265028500E1,2.655711794E0,1.296778949E1
3.074625958E0,2.838248418E0,-1.150598490E1,2.002276089E0,1.201883739E1
3.084686958E0,4.811954427E0,-1.193364674E1,1.430656965E0,1.294656747E1
3.094747958E0,5.458555906E0,-1.154672479E1,1.018161628E0,1.281246811E1
3.104809958E0,4.234819331E0,-8.955394934E0,1.342369856E0,9.996736969E0
3.114870958E0,2.010844014E0,-5.521218177E0,1.785283577E0,6.141219851E0
3.124931958E0,3.728993078E-1,-3.778699965E0,1.096576298E0,3.952228093E0
3.134992958E0,-1.292847886E0,-5.835299027E-1,2.656883576E0,3.011808948E0
3.145053958E0,-2.010339692E0,1.911872873E0,4.220865244E0,5.050982772E0
3.155115958E0,-2.046070857E0,1.742561481E0,6.483942354E0,7.018862794E0
3.165176958E0,-1.723395770E0,-1.453052970E0,1.451282433E0,2.680984262E0
3.175237958E0,-1.836340587E0,-1.669762477E0,3.869336486E-1,2.511965591E0
3.185298958E0,-2.110579679E0,-1.678397060E0,4.293768328E-1,2.730554475E0
3.195359958E0,-2.762214734E0,-1.832464176E0,3.693323600E-1,3.335290330E0
3.205420958E0,-3.693534685E0,-1.858198941E0,1.481666539E-1,4.137276294E0
3.215482958E0,-4.050228288E0,-1.473318835E0,-4.328413081E-1,4.331555053E0
3.225543958E0,-4.379634106E0,-6.773999333E-1,-7.408890740E-1,4.493215128E0
3.235604958E0,-4.805655221E0,2.677071673E-1,-9.256995340E-1,4.901317054E0
3.245665958E0,-5.138833662E0,1.387184086E0,-1.005686667E0,5.416945336E0
3.255726958E0,-5.129919582E0,2.769461188E0,-9.699098200E-1,5.909882846E0
3.265787958E0,-5.460411227E0,1.015918402E1,-9.476572906E-1,1.157251767E1
3.275849958E0,-6.801575972E0,2.539853426E1,-1.716107946E0,2.634942133E1
3.285910958E0,-9.790355694E0,2.309434070E1,-9.802048664E-1,2.510299660E1
3.295971958E0,-1.124472429E1,2.054848405E1,8.794649421E-1,2.344050937E1
3.306032958E0,-1.081384063E1,1.783791485E1,3.770863527E-1,2.086318646E1
3.316093958E0,-8.901160254E0,1.455084995E1,2.682994902E-2,1.705750884E1
3.326155958E0,-6.108154083E0,1.244968691E1,-3.945648497E-1,1.387299290E1
3.336216958E0,-2.140715059E0,1.014577519E1,-6.359057522E-1,1.038863760E1
3.346277958E0,3.094251214E0,5.696016596E0,3.846565966E-1,6.493608884E0
3.356338958E0,8.341229129E0,-1.366652758E0,1.691377002E0,8.620011561E0
3.366399958E0,1.283721464E1,-3.821013342E0,2.479061562E-1,1.339610690E1
3.376460958E0,1.678524062E1,6.257684344E-1,-4.179923040E0,1.730917806E1
3.386522958E0,1.565367692E1,1.100827809E1,-8.217538884E0,2.082661117E1
3.396583958E0,1.240535566E1,1.488330392E1,-5.297945756E0,2.008665761E1
3.406644958E0,9.669597827E0,1.407884165E1,-4.364645353E0,1.762852896E1
3.416705958E0,6.621834902E0,1.011390319E1,-3.905015026E0,1.270389222E1
3.426766958E0,3.964318949E0,4.854349664E0,-1.851458271E0,6.535168944E0
3.436827958E0,1.876045228E0,6.827752787E-1,2.998966742E-1,2.018827827E0
3.446889958E0,5.514769283E-1,-3.603823194E0,2.149741699E0,4.232382046E0
3.456950958E0,2.193332984E-1,-8.344585431E0,1.064940084E0,8.415123915E0
3.467011958E0,8.825399928E-1,-1.420659746E1,2.955297396E0,1.453754006E1
3.477072958E0,7.203604500E-1,-1.794255545E1,4.788358573E0,1.858447183E1
3.487133958E0,3.629420842E-1,-2.030559305E1,2.869729242E0,2.051058707E1
3.497195958E0,-5.153547303E-1,-2.279436450E1,1.499880835E0,2.284947015E1
3.507256958E0,-1.521112514E0,-2.482427921E1,1.167531530E0,2.489822788E1
3.517317958E0,-1.905363898E0,-2.686640758E1,2.131923332E0,2.701813030E1
3.527378958E0,-1.529330629E0,-2.857897285E1,3.269451921E0,2.880600383E1
3.537439958E0,-1.933147967E-1,-2.954542871E1,4.587202660E0,2.990003607E1
3.547501958E0,1.653483390E0,-2.874477181E1,4.824479163E0,2.919368961E1
3.557562958E0,2.036850091E0,-2.514102756E1,4.028851452E0,2.554313350E1
3.567623958E0,2.096754815E0,-1.970825320E1,2.734220020E0,2.000718831E1
3.577684958E0,6.472908658E-1,-9.901780236E0,3.784165943E0,1.061998819E1
3.587745958E0,-5.939521261E-1,7.460841351E0,4.960478382E0,8.979046640E0
3.597806958E0,2.180204230E0,1.055216603E1,3.626199319E0,1.136885306E1
3.607868958E0,2.198149043E0,2.077381235E-1,3.610052233E0,4.231724408E0
3.617929958E0,1.704505755E0,-3.334215097E0,1.366296662E0,3.986112988E0
3.627990958E0,1.532335952E0,-2.607800294E0,-9.384769428E-1,3.166925135E0
3.638051958E0,5.460998653E-1,-2.469826469E0,-6.372313160E-1,2.608511377E0
3.648112958E0,8.054568797E-2,8.484134495E-1,-2.639009807E0,2.773204960E0
3.658173958E0,2.413711070E-1,5.051677405E0,-1.009955997E1,1.129507929E1
3.668235958E0,1.304809827E0,5.179292302E0,-1.066837944E1,1.193071320E1
3.678296958E0,2.142210777E0,5.620133185E0,-9.009372920E0,1.083253269E1
3.688357958E0,2.683869646E0,8.078303815E0,-6.888221768E0,1.095033095E1
3.698418958E0,2.723670181E0,1.370083904E1,-4.557309355E0,1.469355090E1
3.708479958E0,2.699580822E0,1.952387411E1,-3.173859885E0,1.996353635E1
3.718541958E0,2.339183884E0,2.405323261E1,-1.808083041E0,2.423425147E1
3.728602958E0,8.517020698E-1,2.299488657E1,-7.911779791E-1,2.302425173E1
3.738663958E0,5.806071720E-1,1.833183383E1,6.115010820E-2,1.834112798E1
3.748724958E0,1.485910229E0,1.434923093E1,1.210790473E0,1.447668371E1
3.758785958E0,2.052899528E0,1.064119925E1,2.104079622E0,1.103977667E1
3.768846958E0,2.390259898E0,9.196348166E0,1.685383898E0,9.650216622E0
3.778908958E0,2.666037100E0,8.887284227E0,8.962191153E-1,9.321737148E0
3.788969958E0,1.837040353E0,7.476670348E0,2.702547991E-1,7.703788315E0
3.799030958E0,2.017542000E0,9.547664085E0,-1.942153044E-1,9.760434662E0
3.809091958E0,1.097559435E0,9.674370909E0,-2.838648514E-1,9.740568179E0
3.819152958E0,-6.293179136E-1,8.608151016E0,6.366786810E-1,8.654574784E0
3.829213958E0,-1.834364521E0,7.753092790E0,3.375696268E-1,7.974289577E0
3.839275958E0,-2.602113584E0,7.527006689E0,-2.691683865E-1,7.968643323E0
3.849336958E0,-3.531897471E0,7.486315915E0,-5.695410240E-1,8.297204511E0
3.859397958E0,-4.508094510E0,7.414143147E0,-6.126250631E-1,8.698720836E0
3.869458958E0,-5.215262618E0,7.260620407E0,-3.869600341E-1,8.947922158E0
3.879519958E0,-5.353669721E0,7.050897739E0,-1.381872475E-2,8.853085867E0
3.889582042E0,-3.798298078E0,6.588415141E0,-1.543390113E-1,7.606451399E0
3.899643042E0,-1.201119179E0,7.686792966E0,-3.031687760E-1,7.785973587E0
3.909704042E0,1.436066955E0,5.543131202E0,-9.233512191E-1,5.800100801E0
3.919765042E0,3.645900635E0,4.460852516E-1,-1.030935456E0,3.815024430E0
3.929826042E0,5.147293414E0,-3.165137009E0,-4.611658055E-1,6.060148156E0
3.939887042E0,6.041022200E0,-6.978261287E0,3.798678732E-1,9.237660928E0
3.949949042E0,6.576660483E0,-1.118767417E1,6.860678458E-1,1.299566103E1
3.960010042E0,6.259595214E0,-1.592076370E1,1.097436570E0,1.714227569E1
3.970071042E0,5.436321868E0,-2.096676111E1,1.829414414E0,2.173718989E1
3.980132042E0,4.342607782E0,-2.489518021E1,2.425067642E0,2.538718560E1
3.990193042E0,2.639515007E0,-2.780429162E1,3.075889202E0,2.809816304E1
4.000255042E0,1.164454286E0,-2.929234485E1,2.769008614E0,2.944596457E1
4.010316042E0,5.883126327E-1,-2.824366543E1,2.577198890E0,2.836710600E1
4.020377042E0,1.232778416E0,-2.446468714E1,2.484248627E0,2.462137589E1
4.030438042E0,1.213673078E0,-2.028280996E1,2.133189985E0,2.043075823E1
4.040499042E0,5.753932098E-1,-1.640791160E1,1.721641898E0,1.650801900E1
4.050561042E0,-3.681922261E-1,-1.332702654E1,1.583112003E0,1.342577542E1
4.060622042E0,-1.062717777E0,-1.029790688E1,2.309269529E0,1.060702507E1
4.070683042E0,-1.487250996E0,-7.959287249E0,1.843663933E0,8.304292007E0
4.080744042E0,-2.407304970E0,-6.715932389E0,1.715572342E-1,7.136406445E0
4.090805042E0,-3.378767079E0,-5.173866670E0,-8.090698743E-1,6.232139068E0
4.100866042E0,-3.861947944E0,-3.116130910E0,-1.330456154E0,5.137609108E0
4.110928042E0,-3.600104657E0,-5.752777272E-1,-1.313660027E0,3.875229112E0
4.120989042E0,-2.937553728E0,2.517408772E0,-1.210278842E0,4.053559387E0
4.131050042E0,2.427218394E0,1.616777932E1,-1.008404964E0,1.638002924E1
4.141111042E0,4.224562146E0,2.318391536E1,-9.404445308E-1,2.358442903E1
4.151172042E0,2.422489019E-1,1.716481730E1,-3.421966016E-1,1.716993698E1
4.161233042E0,-3.239358202E-1,1.512448636E1,1.030169470E0,1.516299018E1
4.171295042E0,5.478650301E-1,1.544641885E1,2.503505262E0,1.565757165E1
4.181356042E0,4.997406911E-1,1.544394665E1,2.911974206E0,1.572402056E1
4.191417042E0,9.126211399E-1,1.588053017E1,2.559893471E0,1.611139878E1
4.201478042E0,1.462671494E0,1.587568400E1,1.368021591E0,1.600150723E1
4.211539042E0,1.310778519E0,1.469901488E1,-3.595335960E-2,1.475738701E1
4.221601042E0,7.377573784E-1,1.242958419E1,-2.694092917E-1,1.245437395E1
4.231662042E0,-5.869575405E-1,9.722006421E0,-4.773181540E-1,9.751397881E0
4.241723042E0,-1.542256484E0,7.616333433E0,-4.116977763E-1,7.781811170E0
4.251784042E0,-2.688876616E0,5.982129629E0,-4.205317497E-2,6.558788060E0
4.261845042E0,-3.421159685E0,6.187855141E0,-3.394700450E-1,7.078779891E0
4.271906042E0,-3.741400577E0,7.608456064E0,-3.764316838E-2,8.478684978E0
4.281968042E0,-4.957748317E0,6.791528701E0,1.819461284E-1,8.410543078E0
4.292029042E0,-6.180923851E0,5.229652616E0,-5.005746502E-2,8.096640778E0
4.302090042E0,-5.899530691E0,5.148093898E0,-8.189282068E-1,7.872609260E0
4.312151042E0,-4.533960545E0,7.746855565E0,-1.559589239E0,9.110592076E0
4.322212042E0,-3.266915984E0,8.484941996E0,-1.224478878E0,9.174220906E0
4.332274042E0,-3.731454463E0,6.149648849E0,-7.620565063E-1,7.233440640E0
4.342335042E0,-4.006089704E0,4.913138155E0,-3.518749130E-1,6.349133578E0
4.352396042E0,-3.367799165E0,5.202585855E0,2.044711380E-1,6.200869232E0
4.362457042E0,-2.674840960E0,5.077102268E0,4.339288171E-1,5.755000940E0
4.372518042E0,-2.292098303E0,4.005864294E0,4.835412725E-1,4.640525351E0
4.382579042E0,-2.139893818E0,2.752501924E0,3.813752854E-1,3.507258117E0
4.392641042E0,-2.036404240E0,2.778362989E-1,-3.541658521E-2,2.055575242E0
4.402702042E0,-2.129551263E0,-3.343592861E0,1.641552439E-1,3.967562066E0
4.412763042E0,-2.521134617E0,-8.002036827E0,1.683503433E0,8.557037861E0
4.422824042E0,-2.467070969E0,-1.337839784E1,4.370658630E0,1.428882867E1
4.432885042E0,-1.684402881E0,-1.954538017E1,6.782209994E0,2.075710653E1
4.442947042E0,1.106132403E-1,-2.515124147E1,7.941681283E0,2.637550918E1
4.453008042E0,2.137438280E0,-2.906711478E1,7.550305504E0,3.010768867E1
4.463069042E0,3.654646900E0,-3.130140137E1,5.618934506E0,3.201103867E1
4.473130042E0,5.148863391E0,-3.259899909E1,4.603888274E0,3.332268482E1
4.483191042E0,6.609435881E0,-3.129488523E1,5.879348441E0,3.252108889E1
4.493252042E0,7.476089135E0,-2.641315949E1,5.072418648E0,2.791552138E1
4.503314042E0,7.010168374E0,-2.145889787E1,1.116640434E0,2.260251411E1
4.513375042E0,5.320828834E0,-1.736466811E1,-1.460207331E0,1.822018451E1
4.523436042E0,-9.600930758E-2,-1.080052535E1,-1.449558557E1,1.807712827E1
4.533497042E0,-6.068632752E0,-4.411627731E0,-3.069436449E1,3.159801852E1
4.543558042E0,1.472816413E-1,-3.732441473E0,-1.445664312E1,1.493142128E1
4.553620042E0,2.801924930E0,-4.581539631E0,-4.325413460E0,6.895686355E0
4.563681042E0,3.348967330E0,-3.146580285E0,-1.058670554E0,4.715647676E0
4.573742042E0,3.658661306E0,-9.933910686E-1,5.512024015E-1,3.830985833E0
4.583803042E0,3.752148344E0,1.338498999E0,2.160184241E0,4.531731757E0
4.593864042E0,3.768801214E0,4.448594998E0,3.702009054E0,6.906426796E0
4.603925042E0,3.736014999E0,7.294084607E0,4.270657209E0,9.241211572E0
4.613987042E0,3.810141029E0,1.035115396E1,5.097106762E0,1.215088722E1
4.624048042E0,4.098054127E0,1.529434914E1,5.424927399E0,1.673741320E1
4.634109042E0,3.753521855E0,1.968514266E1,3.952606684E0,2.042588719E1
4.644170042E0,3.565255252E0,2.179056363E1,4.089902816E0,2.245589040E1
4.654231042E0,2.323216892E0,2.040629848E1,5.949966434E0,2.138262039E1
4.664293042E0,7.432001860E-1,1.891385983E1,7.768027164E0,2.046041755E1
4.674354042E0,5.447277065E-2,1.622564454E1,8.429715629E0,1.828481921E1
4.684415042E0,-9.966712835E-1,1.249658041E1,7.968572627E0,1.485449513E1
4.694476042E0,-1.541951406E0,1.029919677E1,6.721235229E0,1.239459847E1
4.704537042E0,-1.225604614E0,9.208315662E0,5.321257435E0,1.070565106E1
4.714598042E0,-1.794127637E0,7.479946543E0,3.924090983E0,8.635217676E0
4.724660042E0,-1.857633516E0,6.031174904E0,2.252036982E0,6.700562929E0
4.734721042E0,-1.479789948E0,6.232247202E0,6.847474714E-1,6.442015413E0
4.744782042E0,-2.907409943E-1,7.843615290E0,-7.171265743E-1,7.881694086E0
4.754843042E0,7.024018966E-2,8.344283130E0,-1.996340581E0,8.580056547E0
4.764904042E0,-3.550758250E-2,8.579278049E0,-3.560536256E0,9.288847672E0
4.774965042E0,-3.502852743E-1,7.772114367E0,-4.081671106E0,8.785698636E0
4.785027042E0,-1.235989415E0,7.192186934E0,-5.085503547E0,8.894805735E0
4.795088042E0,-2.090824277E0,7.357411707E0,-7.173048413E0,1.048597524E1
4.805149042E0,-2.539547499E0,7.359262936E0,-8.549122204E0,1.156267888E1
4.815210042E0,-2.728673936E0,6.660410153E0,-8.223632852E0,1.092862581E1
4.825271042E0,-2.263880079E0,5.985225729E0,-7.311804010E0,9.716509554E0
4.835333042E0,-2.579739506E0,4.639842219E0,-6.272005345E0,8.217131055E0
4.845394042E0,-2.694472694E0,2.959348932E0,-4.077654653E0,5.713597524E0
4.855455042E0,-3.085158793E0,-1.226682109E0,-2.109215232E0,3.933413615E0
4.865516042E0,-1.246895349E-1,-4.215126202E0,8.532834493E-2,4.217833247E0
4.875577042E0,8.259151179E-1,-7.919777613E0,4.439052926E0,9.116479809E0
4.885637208E0,-6.529883196E-1,-1.333554476E1,8.060548745E0,1.559601212E1
4.895699208E0,-1.868094184E0,-1.869116278E1,1.051688159E1,2.152798505E1
4.905760208E0,-2.279943404E0,-2.332966072E1,1.169099665E1,2.619447678E1
4.915821208E0,-1.084987848E0,-2.307479462E1,1.063164256E1,2.542941543E1
4.925882208E0,-4.104078221E0,-2.389307035E1,8.854687169E0,2.580945086E1
4.935943208E0,-4.344335342E0,-2.834377912E1,3.439610574E0,2.888033908E1
4.946005208E0,-2.482398568E0,-3.033427424E1,1.700665596E0,3.048315534E1
4.956066208E0,-1.497948184E0,-3.031543217E1,6.499338073E-1,3.035937566E1
4.966127208E0,1.821015547E-1,-2.713523449E1,2.816855210E-1,2.713730750E1
4.976188208E0,1.055798840E0,-2.219468342E1,1.065645697E0,2.224532050E1
4.986249208E0,9.795465430E-1,-1.611540815E1,3.062707824E0,1.643307854E1
4.996311208E0,1.200732459E0,-1.178429833E1,1.750423647E0,1.197394791E1
5.006372208E0,1.458496582E0,-9.271332859E0,-6.703430749E-1,9.409260604E0
5.016433208E0,1.592782421E0,-6.812587448E0,-2.197356891E0,7.333258545E0
5.026494208E0,1.975027187E0,-4.126996382E0,-3.269436718E0,5.623348467E0
5.036555208E0,3.852018203E0,3.792831516E-1,-8.924394751E0,9.727626720E0
5.046616208E0,4.461145461E0,2.736235555E0,-7.402053444E0,9.065274349E0
5.056678208E0,3.995096354E0,3.424027160E0,-4.093437458E0,6.666407360E0
5.066739208E0,4.117989916E0,4.679717306E0,-2.470978371E0,6.705470090E0
5.076800208E0,4.406823951E0,6.111417414E0,-1.492437330E0,7.680943257E0
5.086861208E0,4.814829210E0,7.692135567E0,-8.264348622E-1,9.112328160E0
5.096922208E0,4.668669869E0,1.032795572E1,-5.709404089E-2,1.133430225E1
5.106984208E0,4.298674435E0,1.219518919E1,2.684766608E-1,1.293341877E1
5.117045208E0,4.134769671E0,1.257122831E1,3.543178066E-1,1.323849095E1
5.127106208E0,3.685111478E0,1.428298666E1,8.395723864E-1,1.477459428E1
5.137167208E0,3.973545271E0,1.482768871E1,1.147291539E0,1.539369002E1
5.147228208E0,4.854602264E0,1.500164571E1,1.591248989E0,1.584766893E1
5.157289208E0,6.053520039E0,1.571453240E1,1.745448251E0,1.693039347E1
5.167351208E0,7.079231007E0,1.626235920E1,1.925626693E0,1.784062434E1
5.177412208E0,7.338145716E0,1.584605382E1,1.154297088E0,1.750080587E1
5.187473208E0,6.872731909E0,1.518483079E1,5.025114673E-1,1.667531253E1
5.197534208E0,5.798635231E0,1.401426149E1,-1.556353390E-2,1.516654008E1
5.207595208E0,4.577246606E0,1.193249250E1,-5.126546323E-1,1.279055818E1
5.217656208E0,3.687945624E0,9.688118298E0,-1.449095575E0,1.046711312E1
5.227718208E0,2.679961951E0,8.240900849E0,-2.846049773E0,9.121109701E0
5.237779208E0,1.568214467E0,7.566651980E0,-4.225219373E0,8.807156042E0
5.247840208E0,1.012704860E0,7.841138994E0,-5.084169213E0,9.399883427E0
5.257901208E0,5.615635215E-1,8.413679055E0,-6.048255790E0,1.037722251E1
5.267962208E0,2.571506041E-1,9.086421096E0,-6.405303735E0,1.112012098E1
5.278024208E0,1.056926329E0,1.004216721E1,-5.031486384E0,1.128175832E1
5.288085208E0,1.917289879E0,1.068025046E1,-3.197902467E0,1.131239721E1
5.298146208E0,2.283287719E0,1.089156767E1,-1.873369104E0,1.128490854E1
5.308207208E0,1.970785032E0,1.078889407E1,-1.185569751E0,1.103131019E1
5.318268208E0,1.664538720E0,1.060590779E1,-6.030664735E-1,1.075265820E1
5.328329208E0,1.476388623E0,1.022677316E1,-5.150987685E-2,1.033292146E1
5.338391208E0,1.273090144E0,9.637407736E0,4.267830811E-1,9.730494858E0
5.348452208E0,1.133197118E0,8.927299063E0,7.801442101E-1,9.032686713E0
5.358513208E0,1.217685729E0,7.004046339E0,6.877576911E-1,7.142298950E0
5.368574208E0,9.305234139E-1,9.492738265E-1,1.775188944E0,2.217721896E0
5.378635208E0,-2.690287842E-1,-8.472472808E0,6.228925399E0,1.051925300E1
5.388697208E0,-8.154493327E-1,-1.877389854E1,8.997665040E0,2.083463943E1
5.398758208E0,8.095389672E-1,-3.090136528E1,1.178421413E1,3.308198048E1
5.408819208E0,2.584430142E0,-4.349091642E1,1.255493797E1,4.534055092E1
5.418880208E0,3.021579679E0,-5.420415688E1,1.076516490E1,5.534536423E1
5.428941208E0,2.911183078E0,-5.975351068E1,6.436075292E0,6.016959441E1
5.439003208E0,3.271087387E0,-5.637440944E1,2.483868558E0,5.652383263E1
5.449064208E0,4.347257195E0,-4.292872301E1,-2.098835400E-1,4.314878858E1
5.459125208E0,3.108037779E0,-3.030588016E1,-1.131812205E0,3.048585360E1
5.469186208E0,4.123715217E-1,-1.915816820E1,1.185615067E0,1.919924848E1
5.479247208E0,-2.623596254E0,-9.799959746E0,-2.491002161E0,1.044641374E1
5.489308208E0,-4.837293628E0,2.392516923E-1,-2.158939837E1,2.212597507E1
5.499370208E0,-1.287975547E0,7.833080946E0,-3.112316654E1,3.211958178E1
5.509431208E0,5.430122796E-1,4.336267061E0,-1.273341136E1,1.346246037E1
5.519492208E0,-3.667365252E-1,3.263280770E0,-3.723733215E0,4.964845024E0
5.529553208E0,-8.504203601E-1,5.229268454E0,-1.771723446E0,5.586364410E0
5.539614208E0,-6.869904634E-1,7.025489248E0,-3.530295919E-1,7.067820383E0
5.549675208E0,-3.323902363E-1,7.218750250E0,1.226155275E-1,7.227438897E0
5.559737208E0,3.889477586E-1,7.152153972E0,1.341113289E0,7.287192303E0
5.569798208E0,7.923492495E-1,9.696988524E0,4.356777924E0,1.066024942E1
5.579859208E0,7.625652140E-1,1.184338562E1,5.061292566E0,1.290209173E1
5.589920208E0,8.346785592E-1,1.268417196E1,4.735112658E0,1.356488844E1
5.599981208E0,1.243441983E0,1.321019099E1,4.514324133E0,1.401550628E1
5.610043208E0,1.695069811E0,1.323233088E1,3.722204168E0,1.385000527E1
5.620104208E0,2.348652865E0,1.364560039E1,3.936481233E0,1.439494581E1
5.630165208E0,3.191184601E0,1.394632035E1,4.160436609E0,1.489942091E1
5.640226208E0,4.208977270E0,1.434274286E1,4.130877180E0,1.550786603E1
5.650287208E0,5.320835851E0,1.394364934E1,3.691049618E0,1.537402024E1
5.660348208E0,6.897280859E0,1.299536194E1,3.065492853E0,1.502827873E1
5.670410208E0,8.206386489E0,1.158393062E1,2.199853506E0,1.436563898E1
5.680471208E0,9.022902793E0,1.022140542E1,1.156608492E0,1.368311539E1
5.690532208E0,8.978587915E0,8.739030413E0,1.278961480E-2,1.252939971E1
5.700593208E0,8.683735049E0,7.286879668E0,-1.960049690E0,1.150424550E1
5.710654208E0,6.613281010E0,6.897261563E0,-4.242922111E0,1.045514662E1
5.720716208E0,3.912849711E0,7.963055195E0,-5.991812618E0,1.070618790E1
5.730777208E0,2.363912052E0,8.700889610E0,-6.688843993E0,1.122649519E1
5.740838208E0,1.006073533E0,9.723089325E0,-6.303921787E0,1.163142639E1
5.750899208E0,3.964763045E-2,1.056617128E1,-5.142266563E0,1.175110433E1
5.760960208E0,-4.472755254E-1,1.077917833E1,-3.810424619E0,1.144159415E1
5.771021208E0,-4.953978910E-1,1.054856532E1,-2.734788369E0,1.090856163E1
5.781083208E0,-7.697557544E-1,1.037984859E1,-1.930098059E0,1.058579516E1
5.791144208E0,-9.766418655E-1,1.009248016E1,-1.363502132E0,1.023089063E1
5.801205208E0,-1.047613323E0,9.721405327E0,-9.527424679E-1,9.823997833E0
5.811266208E0,-1.039913417E0,8.801041889E0,-4.379681468E-1,8.873081446E0
5.821327208E0,-1.035208893E0,6.915476809E0,1.628876406E-1,6.994427020E0
5.831389208E0,-9.699305045E-1,4.807067324E0,-8.694903231E-1,4.980429185E0
5.841450208E0,-1.288558807E0,9.970467478E-1,-1.163162636E0,2.001857471E0
5.851511208E0,-1.719172618E0,-5.407640691E0,8.762222224E-1,5.741593656E0
5.861572208E0,-2.298756381E0,-1.403346959E1,4.887910928E0,1.503709490E1
5.871633208E0,-1.551553703E0,-2.313595182E1,8.026004564E0,2.453765137E1
5.881694208E0,7.918327942E-1,-3.146217407E1,9.381863362E0,3.284074842E1
5.891756708E0,2.845115388E0,-3.866462930E1,8.746737628E0,3.974359898E1
5.901817708E0,3.715551791E0,-4.437591824E1,6.842846789E0,4.505387882E1
5.911878708E0,3.489849559E0,-4.683204351E1,4.125024701E0,4.714271077E1
5.921939708E0,2.723188370E0,-4.267914514E1,2.075502525E0,4.281626905E1
5.932000708E0,3.560545027E0,-3.229518011E1,5.310470492E-1,3.249520196E1
5.942062708E0,2.894853266E0,-2.312846037E1,3.122927713E-1,2.331101416E1
5.952123708E0,1.445865134E0,-1.594522728E1,6.657164656E-1,1.602448056E1
5.962184708E0,7.648527910E-1,-1.078885781E1,-2.013507713E-1,1.081780915E1
5.972245708E0,5.667613307E-1,-6.705869915E0,-1.134745314E0,6.824775209E0
5.982306708E0,5.537791964E-1,-3.280716582E0,-1.516171470E0,3.656302588E0
5.992368708E0,7.080349579E-1,-3.982474262E-1,-1.428450810E0,1.643285195E0
6.002429708E0,1.213086602E0,2.944454904E0,-6.707906793E-1,3.254436037E0
6.012490708E0,1.924357701E0,5.783167006E0,-1.068856257E0,6.187942056E0
6.022551708E0,1.832479963E0,6.560405223E0,-1.862398412E0,7.061545677E0
6.032612708E0,1.537070004E0,6.951894438E0,-2.164887156E0,7.441650144E0
6.042673708E0,1.533961186E0,7.640494713E0,-2.266450369E0,8.115848301E0
6.052735708E0,1.449205941E0,8.808814593E0,-2.548626471E0,9.283905928E0
6.062796708E0,1.009261947E-1,1.175611241E1,-4.983818128E0,1.276929161E1
6.072857708E0,-4.725800090E-2,1.224421810E1,-2.856354321E0,1.257306129E1
6.082918708E0,4.155319053E-1,1.193210542E1,-1.658800117E0,1.205402108E1
6.092979708E0,2.624795372E-1,1.291292322E1,-1.352497233E0,1.298621309E1
6.103040708E0,4.722136809E-1,1.320373215E1,-1.360800279E0,1.328206708E1
6.113102708E0,8.922539721E-1,1.336523108E1,-1.647335481E0,1.349589690E1
6.123163708E0,1.664409205E0,1.332225872E1,-2.179425235E0,1.360157086E1
6.133224708E0,2.733805744E0,1.304870960E1,-2.705140647E0,1.360368707E1
6.143285708E0,3.946080022E0,1.261084086E1,-3.196110295E0,1.359485107E1
6.153346708E0,4.993811604E0,1.207717601E1,-3.446119987E0,1.351562346E1
6.163408708E0,5.285456103E0,1.127203546E1,-3.455305963E0,1.292029291E1
6.173469708E0,4.614712640E0,1.041225503E1,-3.184898844E0,1.182599713E1
6.183530708E0,3.148753111E0,9.810114605E0,-2.676943034E0,1.064514062E1
6.193591708E0,1.888096924E0,9.502751037E0,-2.187281262E0,9.932340438E0
6.203652708E0,1.023885321E0,9.332161444E0,-1.638126116E0,9.530007111E0
6.213714708E0,3.694627529E-1,9.241803251E0,-1.112927452E0,9.315902402E0
6.223775708E0,-8.521045044E-2,9.129201080E0,-8.082512641E-1,9.165306503E0
6.233836708E0,-5.745465329E-1,9.110084193E0,-5.709917182E-1,9.146024780E0
6.243897708E0,-8.558225296E-1,9.020898952E0,-4.516986517E-1,9.072655718E0
6.253958708E0,-1.099097033E0,9.033017306E0,-2.415275748E-1,9.102843046E0
6.264019708E0,-1.349090207E0,9.438548024E0,1.682214707E-1,9.535959923E0
6.274081708E0,-1.453675845E0,9.944296510E0,7.703193529E-1,1.007946419E1
6.284142708E0,-9.247679264E-1,9.825905596E0,1.267901471E0,9.950436706E0
6.294203708E0,-8.624213682E-3,9.422432513E0,1.600217448E0,9.557353437E0
6.304264708E0,6.520409976E-1,9.078478823E0,1.499057109E0,9.224484128E0
6.314325708E0,8.805846108E-1,7.928000552E0,1.082646623E0,8.049891038E0
6.324386708E0,8.311078839E-1,6.131320167E0,4.568629856E-1,6.204236543E0
6.334448708E0,8.055254383E-1,3.954269047E0,2.238425249E-1,4.041685342E0
6.344509708E0,7.987950008E-1,-3.850707257E-1,1.738812246E0,1.951876263E0
6.354570708E0,9.390623222E-1,-7.199390119E0,5.250926540E0,8.960205671E0
6.364631708E0,2.492846373E0,-1.496559997E1,8.583823090E0,1.743173785E1
6.374692708E0,4.307717446E0,-2.282857305E1,9.761240653E0,2.519884910E1
6.384754708E0,4.906232008E0,-2.959365655E1,8.640654518E0,3.121724733E1
6.394815708E0,4.519135222E0,-3.503265235E1,6.296895187E0,3.587980216E1
6.404876708E0,3.432965798E0,-3.839529252E1,3.536031160E0,3.871029912E1
6.414937708E0,2.036726861E0,-3.935031123E1,1.316880819E0,3.942498479E1
6.424998708E0,1.459675819E0,-3.611625134E1,-7.698385656E-2,3.614581844E1
6.435060708E0,2.003473599E0,-2.865136839E1,-4.763846460E-1,2.872528084E1
6.445121708E0,1.484570047E0,-2.188214272E1,1.064693186E-1,2.193270285E1
6.455182708E0,6.255780344E-1,-1.620363211E1,3.652486646E-1,1.621981652E1
6.465243708E0,1.601498280E-1,-1.167385144E1,-6.520411438E-1,1.169314385E1
6.475304708E0,-2.202870889E-1,-7.842863923E0,-2.088025214E0,8.119044907E0
6.485365708E0,-8.319216701E-1,-4.691381916E0,-3.995776092E0,6.218310424E0
6.495427708E0,-3.047206855E0,-8.921968156E-1,-1.302703631E1,1.340839885E1
6.505488708E0,-3.356017317E0,1.579969125E0,-1.496216882E1,1.541511111E1
6.515549708E0,-1.436395715E0,3.445641392E-1,-5.837540265E0,6.021530822E0
6.525610708E0,-1.223863459E0,3.483788627E-1,-2.481647201E0,2.788867589E0
6.535671708E0,-1.149921616E0,1.663981919E0,-9.759454621E-1,2.245801660E0
6.545733708E0,-9.807369630E-1,3.458113503E0,1.123524507E0,3.765992739E0
6.555794708E0,-1.236240845E0,4.989592254E0,2.385180714E0,5.666869446E0
6.565855708E0,-1.225546068E0,6.392837471E0,2.175425739E0,6.863148785E0
6.575916708E0,-1.118647491E0,7.183416111E0,1.559537784E0,7.435388176E0
6.585977708E0,-8.859628797E-1,7.669286987E0,8.525031383E-1,7.767216665E0
6.596038708E0,-4.242013526E-1,8.496433529E0,3.448518223E-1,8.514003305E0
6.606100708E0,-9.384655042E-2,9.900261129E0,3.600200844E-1,9.907249470E0
6.616161708E0,3.536876229E-1,1.134567179E1,7.438740776E-1,1.137553128E1
6.626222708E0,3.805400837E-1,1.273892879E1,1.176266831E0,1.279877811E1
6.636283708E0,4.118436643E-1,1.444676717E1,1.678347943E0,1.454976112E1
6.646344708E0,7.210391656E-1,1.531987926E1,1.822818609E0,1.544478118E1
6.656406708E0,1.773372068E0,1.564695496E1,1.577509201E0,1.582594652E1
6.666467708E0,3.114626714E0,1.569412328E1,1.309127265E0,1.605366685E1
6.676528708E0,4.259433478E0,1.517889002E1,1.132657639E0,1.580583402E1
6.686589708E0,4.924280024E0,1.436910211E1,1.031520177E0,1.522444295E1
6.696650708E0,5.091431454E0,1.343096781E1,8.728302526E-1,1.439011478E1
6.706711708E0,4.961960067E0,1.224997526E1,4.854500230E-1,1.322567970E1
6.716773708E0,4.224904500E0,1.115011868E1,-2.196218584E-1,1.192573680E1
6.726834708E0,3.096989757E0,1.039690609E1,-9.540258586E-1,1.089023264E1
6.736895708E0,2.115551274E0,1.008706914E1,-1.542186318E0,1.042126958E1
6.746956708E0,1.414367499E0,9.990770180E0,-1.913146542E0,1.027015355E1
6.757017708E0,9.289553368E-1,9.960688595E0,-2.106253763E0,1.022323727E1
6.767078708E0,6.559985393E-1,9.947496107E0,-2.165229219E0,1.020153079E1
6.777140708E0,4.284159526E-1,9.805375437E0,-2.104932731E0,1.003791161E1
6.787201708E0,3.940629394E-1,9.551063656E0,-1.920378379E0,9.750177213E0
6.797262708E0,5.853801445E-1,9.357891532E0,-1.640489707E0,9.518613886E0
6.807323708E0,9.065790658E-1,9.169591892E0,-1.345570183E0,9.312027716E0
6.817384708E0,1.459096945E0,8.662997314E0,-1.184230739E0,8.864473408E0
6.827446708E0,2.223393081E0,7.403899995E0,-1.420028919E0,7.859878756E0
6.837507708E0,3.214405940E0,3.858554805E0,-1.248745993E0,5.174960607E0
6.847568708E0,3.500333324E0,-1.666129017E0,1.891656125E-1,3.881250174E0
6.857629708E0,2.941735657E0,-8.159539767E0,2.911159689E0,9.149139228E0
6.867690708E0,2.949583205E0,-1.617576545E1,5.547849321E0,1.735321472E1
6.877752708E0,3.485415908E0,-2.565935516E1,7.600659971E0,2.698741676E1
6.887813042E0,4.323502005E0,-3.546382837E1,8.088800152E0,3.663064946E1
6.897874042E0,4.806712398E0,-4.508470837E1,7.523121214E0,4.596012147E1
6.907935042E0,4.495325068E0,-5.172321602E1,5.517630326E0,5.221056662E1
6.917996042E0,3.662752018E0,-5.123949224E1,2.752638164E0,5.144393389E1
6.928058042E0,3.974383762E0,-3.998942126E1,7.930004101E-1,4.019425815E1
6.938119042E0,3.246750399E0,-2.771257921E1,-8.738020599E-2,2.790225922E1
6.948180042E0,1.038873343E0,-1.854436960E1,-5.654549897E-2,1.857353222E1
6.958241042E0,-6.916539102E-1,-1.127043333E1,-8.524129450E-2,1.129195814E1
6.968302042E0,-1.542157666E0,-5.802444107E0,-7.802545032E-1,6.054370733E0
6.978363042E0,-1.865558832E0,-1.602863313E0,-1.642188762E0,2.957408407E0
6.988425042E0,-1.964712114E0,2.442785436E0,-2.968358907E0,4.317227001E0
6.998486042E0,-2.251157561E0,6.247613685E0,-5.367429973E0,8.538717213E0
7.008547042E0,-2.081203122E0,8.567480707E0,-7.256028589E0,1.141854119E1
7.018608042E0,-1.373993644E0,9.097709731E0,-6.576147682E0,1.130937218E1
7.028669042E0,-1.065715133E0,8.844027695E0,-3.429569736E0,9.545392773E0
7.038731042E0,-8.041864260E-1,8.736330754E0,-2.213720909E0,9.048245747E0
7.048792042E0,-4.215391519E-1,8.513827241E0,-1.365838825E0,8.632987041E0
7.058853042E0,-3.852155539E-1,8.546951133E0,-3.324908815E-1,8.562085895E0
7.068914042E0,-6.860459188E-1,9.599314880E0,6.139102080E-1,9.643359939E0
7.078975042E0,-7.866072106E-1,1.043099301E1,1.151191047E0,1.052376392E1
7.089036042E0,-9.072368775E-1,1.123479922E1,1.020861799E0,1.131750640E1
7.099098042E0,-8.636213265E-1,1.156803906E1,3.922791731E-1,1.160686230E1
7.109159042E0,-7.525790468E-1,1.211516186E1,-8.697265506E-2,1.213882558E1
7.119220042E0,-5.482204677E-1,1.293522450E1,-2.797840796E-1,1.294985937E1
7.129281042E0,-3.336175303E-1,1.327263223E1,-4.394317049E-1,1.328409452E1
7.139342042E0,-9.059379917E-2,1.337832884E1,-5.888631481E-1,1.339158876E1
7.149404042E0,2.078954867E-1,1.317425166E1,-6.425845150E-1,1.319155192E1
7.159465042E0,5.872919282E-1,1.286777921E1,-6.255854166E-1,1.289635649E1
7.169526042E0,9.133092110E-1,1.250348364E1,-6.256685201E-1,1.255239809E1
7.179587042E0,1.109879591E0,1.194513535E1,-5.570777569E-1,1.200951402E1
7.189648042E0,1.184718177E0,1.125839742E1,-3.408634365E-1,1.132569015E1
7.199709042E0,1.042085657E0,1.049041008E1,-5.678187266E-2,1.054219476E1
7.209771042E0,8.342308818E-1,9.725395467E0,2.061406642E-1,9.763285929E0
7.219832042E0,7.313002250E-1,9.342521541E0,1.008078982E-1,9.371641851E0
7.229893042E0,6.939175136E-1,9.441511978E0,-2.914152879E-1,9.471462021E0
7.239954042E0,5.991014400E-1,9.570553595E0,-7.135563375E-1,9.615798527E0
7.250015042E0,5.449110898E-1,9.726963106E0,-1.134016751E0,9.807993340E0
7.260077042E0,6.289306086E-1,9.810116944E0,-1.380020808E0,9.926651278E0
7.270138042E0,8.564815108E-1,9.787698720E0,-1.389181495E0,9.922823793E0
7.280199042E0,1.045526890E0,9.530687279E0,-1.226923599E0,9.666047176E0
7.290260042E0,1.150562252E0,8.962058421E0,-9.462174869E-1,9.085021308E0
7.300321042E0,1.425349593E0,7.919562435E0,-6.671858709E-1,8.074418098E0
7.310382042E0,1.995703234E0,6.067648666E0,-1.255134076E0,6.509573971E0
7.320444042E0,2.661567488E0,1.917446439E0,-1.080085542E0,3.453567303E0
7.330505042E0,3.489225368E0,-5.103565596E0,1.632475075E0,6.394220073E0
7.340566042E0,4.658271473E0,-1.408549344E1,5.206289481E0,1.572278820E1
7.350627042E0,6.325510876E0,-2.445688695E1,8.407273430E0,2.662393010E1
7.360688042E0,7.285844711E0,-3.386044933E1,9.529673957E0,3.592253120E1
7.370750042E0,6.791122904E0,-4.127776401E1,8.860180628E0,4.276068232E1
7.380811042E0,5.082905045E0,-4.508291210E1,5.695544726E0,4.572465546E1
7.390872042E0,2.807395585E0,-4.517730955E1,2.398146622E0,4.532793703E1
7.400933042E0,2.177872507E0,-3.917879836E1,1.089038068E0,3.925439305E1
7.410994042E0,3.024629586E0,-2.895134693E1,1.301239371E0,2.913798375E1
7.421056042E0,2.300498706E0,-2.125504288E1,5.368065566E-1,2.138591367E1
7.431117042E0,1.187836278E0,-1.562499749E1,-1.013599923E0,1.570283053E1
7.441178042E0,4.362790324E-2,-1.056346636E1,-2.122269433E0,1.077463468E1
7.451239042E0,-9.461188151E-1,-6.021200724E0,-2.173602431E0,6.471054512E0
7.461300042E0,-1.343079269E0,-1.587332523E0,-1.908011371E0,2.822054900E0
7.471361042E0,-1.612440614E0,2.642719281E0,-5.476510951E0,6.290953992E0
7.481423042E0,-3.384128391E0,7.753592142E0,-1.554072274E1,1.769419621E1
7.491484042E0,-2.306684036E0,7.733907491E0,-9.655215431E0,1.258400975E1
7.501545042E0,-9.473533085E-1,6.591729342E0,-4.552920434E0,8.067060090E0
7.511606042E0,-5.573256058E-1,6.671625697E0,-2.446958009E0,7.128029515E0
7.521667042E0,-1.245885243E-1,7.140930827E0,-9.833940840E-1,7.209402146E0
7.531729042E0,1.773220223E-1,8.303152061E0,1.128512621E-3,8.305045365E0
7.541790042E0,2.769830440E-1,9.081009498E0,1.176738628E0,9.161122579E0
7.551851042E0,3.388160339E-1,1.004638890E1,1.751266816E0,1.020351222E1
7.561912042E0,4.035155847E-1,1.088520823E1,1.851048966E0,1.104884453E1
7.571973042E0,3.952894294E-1,1.177753427E1,2.067467281E0,1.196415431E1
7.582034042E0,3.335330380E-1,1.298135669E1,2.391700652E0,1.320405611E1
7.592096042E0,8.763447216E-1,1.436364783E1,2.984612997E0,1.469660756E1
7.602157042E0,1.782659932E0,1.507916108E1,3.285984339E0,1.553565797E1
7.612218042E0,3.102895445E0,1.551634687E1,3.486173122E0,1.620303624E1
7.622279042E0,3.791714698E0,1.518727727E1,4.197168818E0,1.620637891E1
7.632340042E0,3.740561794E0,1.440568229E1,4.363233250E0,1.550978044E1
7.642402042E0,3.503630277E0,1.395181206E1,4.128759903E0,1.496579911E1
7.652463042E0,2.844664568E0,1.343692964E1,3.322820628E0,1.413097065E1
7.662524042E0,2.039811559E0,1.300345098E1,2.434292355E0,1.338567697E1
7.672585042E0,1.388050789E0,1.247288048E1,1.664171369E0,1.265973534E1
7.682646042E0,1.101433069E0,1.164777871E1,9.838004655E-1,1.174102922E1
7.692707042E0,8.743757448E-1,1.089010235E1,3.286228021E-1,1.093008944E1
7.702769042E0,7.117616808E-1,1.042999665E1,-2.784642899E-1,1.045796238E1
7.712830042E0,6.376093385E-1,1.005737231E1,-6.944697831E-1,1.010146384E1
7.722891042E0,5.759572468E-1,9.661426343E0,-9.534125588E-1,9.725424476E0
7.732952042E0,5.501835607E-1,9.284169837E0,-1.082693985E0,9.363265337E0
7.743013042E0,6.170468006E-1,8.396430354E0,-2.948791199E0,8.920547011E0
7.753075042E0,1.249929031E0,7.065332175E0,-4.863867177E0,8.668243492E0
7.763136042E0,1.706360930E0,7.995572146E0,-1.511729779E0,8.314214845E0
7.773197042E0,2.473721300E0,7.337868558E0,-7.924205855E-1,7.784056939E0
7.783258042E0,4.185591623E0,3.614335318E0,-7.429086292E-1,5.579830666E0
7.793319042E0,5.095615137E0,-3.513220003E0,7.625797590E-1,6.236147553E0
7.803380042E0,5.145016508E0,-1.191372177E1,3.264124523E0,1.338142258E1
7.813442042E0,5.305024395E0,-2.144974581E1,5.675947782E0,2.281340093E1
7.823503042E0,5.861502739E0,-3.168705097E1,6.925931631E0,3.296050580E1
7.833564042E0,7.183345360E0,-4.222099006E1,6.312584437E0,4.329042821E1
7.843625042E0,7.578155208E0,-5.187915424E1,5.982412049E0,5.276991885E1
7.853686042E0,5.583148377E0,-5.595747957E1,5.748091899E0,5.652832588E1
7.863748042E0,2.602385480E0,-4.906431866E1,5.205294285E0,4.940824693E1
7.873809042E0,3.271231521E0,-3.495342959E1,2.375026147E0,3.518641706E1
7.883870042E0,2.926937231E0,-2.509233428E1,-1.186195403E-1,2.526274474E1
7.893932042E0,1.285604209E0,-1.740089278E1,-1.174991115E0,1.748783726E1
7.903993042E0,-2.404684248E-1,-1.110484252E1,-1.855919843E0,1.126142934E1
7.914055042E0,-2.063300263E0,-5.069490362E0,-4.562333282E0,7.125435109E0
7.924116042E0,-4.038833234E0,3.139886978E0,-1.259263380E1,1.359211132E1
7.934177042E0,-2.570936815E0,6.423550556E0,-1.052579860E1,1.259619601E1
7.944238042E0,-2.465445735E0,6.081352785E0,-3.395104492E0,7.388369840E0
7.954299042E0,-3.046286211E0,6.203868325E0,-8.460119981E-1,6.963015021E0
7.964360042E0,-2.760097165E0,6.297228479E0,-9.140145314E-1,6.936039608E0
7.974422042E0,-2.198434241E0,6.414952810E0,-4.211398967E-1,6.794269018E0
7.984483042E0,-1.779450541E0,8.355847753E0,6.417213929E-1,8.567289084E0
7.994544042E0,-1.414359751E0,1.096986305E1,1.898438310E0,1.122240513E1
8.004605042E0,-1.449162233E0,1.316530308E1,1.981971633E0,1.339229211E1
8.014666042E0,-7.672136774E-1,1.455783152E1,1.618468362E0,1.466760087E1
8.024728042E0,2.539423648E-1,1.533388334E1,1.744793948E0,1.543492050E1
8.034789042E0,9.941683097E-1,1.589200709E1,1.716270061E0,1.601530027E1
8.044850042E0,2.114849901E0,1.671193407E1,1.964436418E0,1.695937325E1
8.054911042E0,3.206325966E0,1.679995806E1,2.161654816E0,1.723925371E1
8.064972042E0,4.469720111E0,1.675849896E1,2.421502740E0,1.751254867E1
8.075033042E0,5.466977066E0,1.647768643E1,2.787633165E0,1.758331274E1
8.085095042E0,6.408008072E0,1.584813543E1,2.882870860E0,1.733600036E1
8.095156042E0,6.507370977E0,1.463824711E1,2.656915736E0,1.623832986E1
8.105217042E0,5.589900157E0,1.312240908E1,2.254753599E0,1.444051652E1
8.115278042E0,4.126506386E0,1.147417137E1,1.852458145E0,1.233354226E1
8.125339042E0,2.901730469E0,1.030302787E1,1.505070385E0,1.080914704E1
8.135401042E0,2.044986491E0,9.460596120E0,9.448966008E-1,9.725105567E0
8.145462042E0,1.583601708E0,8.057277228E0,5.583272338E-1,8.230385167E0
8.155523042E0,1.121415709E0,7.987139291E0,-3.372546811E-1,8.072527979E0
8.165584042E0,6.591997437E-1,8.453550634E0,-1.238523306E0,8.569189145E0
8.175645042E0,2.264592087E-1,8.403940517E0,-1.669308294E0,8.571119540E0
8.185707042E0,-1.000351886E-1,8.039611035E0,-2.045470787E0,8.296342771E0
8.195768042E0,-3.695447601E-1,7.584305894E0,-3.093983411E0,8.199450748E0
8.205829042E0,-7.083790666E-1,7.374303144E0,-4.207162294E0,8.519528292E0
8.215890042E0,4.119436517E-3,7.880078527E0,-3.140189279E0,8.482714381E0
8.225951042E0,8.391510214E-1,8.223997718E0,-2.235181214E0,8.563547627E0
8.236012042E0,1.349322780E0,8.203288634E0,-1.798923816E0,8.505924011E0
8.246074042E0,1.796535521E0,7.763303198E0,-1.394948604E0,8.089641403E0
8.256135042E0,2.181635921E0,6.582686623E0,-1.243449000E0,7.045386000E0
8.266196042E0,2.484236055E0,4.091121376E0,-1.165844681E0,4.926245701E0
8.276257042E0,2.517638859E0,-9.428313643E-1,2.192711717E-1,2.697316491E0
8.286318042E0,2.113559274E0,-8.438991067E0,3.794272270E0,9.491059219E0
8.296380042E0,2.666958913E0,-1.703434019E1,4.955711147E0,1.793991328E1
8.306441042E0,4.058855563E0,-2.664451978E1,5.054622647E0,2.742177881E1
8.316502042E0,5.258936056E0,-3.706737815E1,5.550743108E0,3.784782266E1
8.326563042E0,5.721391758E0,-4.779970625E1,5.488151588E0,4.845271973E1
8.336624042E0,4.776385229E0,-5.622967916E1,4.802722843E0,5.663617943E1
8.346686042E0,1.948900073E0,-5.691958044E1,3.670452216E0,5.707108785E1
8.356747042E0,1.134935934E0,-4.498756039E1,2.069702087E0,4.504944324E1
8.366808042E0,1.193317020E0,-3.095512926E1,7.554300030E-1,3.098733140E1
8.376869042E0,-4.146702084E-1,-2.098008575E1,1.311851337E-1,2.098459337E1
8.386930042E0,-1.915601057E0,-1.312184891E1,-2.434237538E-1,1.326317087E1
8.396991042E0,-2.664190257E0,-6.883342266E0,-2.791063142E-1,7.386217625E0
8.407053042E0,-2.835803697E0,-1.635860905E0,1.997859102E-1,3.279899071E0
8.417114042E0,-2.539217716E0,2.931817317E0,-7.249962687E-3,3.878560552E0
8.427175042E0,-2.038368320E0,6.328761343E0,-7.941875410E-1,6.696185437E0
8.437236042E0,-1.346987840E0,8.556097348E0,-1.122741492E0,8.733941065E0
8.447297042E0,-9.350395840E-1,1.157267707E1,-1.204562166E0,1.167270850E1
8.457359042E0,-1.101324457E0,1.495226130E1,-7.200905279E-1,1.501004876E1
8.467420042E0,-6.627802862E-1,1.663619392E1,-7.911102245E-1,1.666817570E1
8.477481042E0,1.747733489E-1,1.670098692E1,-1.331094670E0,1.675485967E1
8.487542042E0,1.037124441E0,1.817600904E1,-1.507855414E0,1.826791066E1
8.497603042E0,3.354163165E0,2.091403092E1,-5.146294125E0,2.179751002E1
8.507664042E0,5.656252606E0,2.133971056E1,-6.275749902E0,2.295128487E1
8.517726042E0,7.014306448E0,2.020390997E1,-5.087523760E0,2.198366146E1
8.527787042E0,8.734638569E0,1.859697466E1,-4.755560371E0,2.108925631E1
8.537848042E0,9.647413491E0,1.592370952E1,-3.808050064E0,1.900364063E1
8.547909042E0,9.769168893E0,1.287406145E1,-2.754601659E0,1.639408276E1
8.557970042E0,7.864151296E0,1.085272929E1,-1.849668000E0,1.352951885E1
8.568032042E0,5.721145005E0,9.727506312E0,-1.269329507E0,1.135636723E1
8.578093042E0,3.728664464E0,9.197824588E0,-1.028718338E0,9.978034739E0
8.588154042E0,2.021083366E0,9.005196839E0,-1.001969519E0,9.283441765E0
8.598215042E0,6.737373836E-1,9.009638384E0,-1.010194870E0,9.091094519E0
8.608276042E0,-2.316143516E-1,9.014556477E0,-9.757179324E-1,9.070165333E0
8.618337042E0,-7.731716247E-1,8.938683591E0,-8.277815491E-1,9.010165426E0
8.628399042E0,-1.191740099E0,8.852900845E0,-5.773808245E-1,8.951394665E0
8.638460042E0,-1.452527013E0,8.897255484E0,-4.557039213E-1,9.026552827E0
8.648521042E0,-1.697672406E0,8.856476417E0,-3.016169250E-1,9.022762265E0
8.658582042E0,-1.901043098E0,8.830827021E0,-1.445507723E-1,9.034288332E0
8.668643042E0,-2.084103925E0,8.784777859E0,-8.906471573E-2,9.029049990E0
8.678705042E0,-2.313661373E0,8.592140170E0,-1.054094376E-1,8.898820865E0
8.688766042E0,-2.580561624E0,8.319951696E0,9.309359349E-2,8.711461470E0
8.698827042E0,-2.884656014E0,7.939419580E0,4.281552764E-1,8.458069551E0
8.708888042E0,-3.094605555E0,7.446747222E0,6.467213470E-1,8.090047974E0
8.718949042E0,-3.167005194E0,6.666487749E0,1.112369043E0,7.463869351E0
8.729011042E0,-2.840805698E0,5.041327248E0,1.861074602E0,6.078548849E0
8.739072042E0,-2.603466045E0,1.610142512E0,2.772623947E0,4.130137759E0
8.749133042E0,-2.870990487E0,-4.279013464E0,4.620129501E0,6.920848157E0
8.759194042E0,-3.244143125E0,-1.129574241E1,6.884395934E0,1.362032190E1
8.769255042E0,-2.597738405E0,-1.929737403E1,7.520736719E0,2.087338904E1
8.779316042E0,-2.945026908E-1,-2.786758656E1,7.339251425E0,2.881932900E1
8.789378042E0,2.433673427E0,-3.703707086E1,6.361795188E0,3.765819728E1
8.799439042E0,5.232439983E0,-4.722008346E1,5.200537575E0,4.779288965E1
8.809500042E0,7.736787829E0,-5.589766957E1,4.232339820E0,5.658904532E1
8.819561042E0,8.731829567E0,-5.726382239E1,2.484681321E0,5.797899485E1
8.829622042E0,8.432509428E0,-4.653399924E1,1.741292635E0,4.732390939E1
8.839684042E0,4.305331782E0,-3.085209664E1,1.637153286E0,3.119403821E1
8.849745042E0,4.438160641E0,-2.337484566E1,-2.716176097E0,2.394698921E1
8.859806042E0,5.777988712E0,-1.743135210E1,-2.889503941E0,1.858995488E1
8.869867042E0,4.137741226E0,-1.026344923E1,-2.580975607E0,1.136313019E1
8.879928042E0,3.259381261E0,1.354570656E0,-1.106089368E1,1.161041760E1
8.889989542E0,7.664317402E-2,1.005958840E1,-2.695612726E1,2.877210437E1
8.900050542E0,-2.492136484E-1,6.793102187E0,-1.106952183E1,1.299009847E1
8.910111542E0,-1.212829398E0,7.892129638E0,-4.467669784E0,9.149685168E0
8.920172542E0,-5.794256689E-1,8.190069249E0,-1.899608338E0,8.427424295E0
8.930233542E0,3.390669891E-1,8.974315354E0,-1.127409690E0,9.051207384E0
8.940294542E0,3.411853988E-1,1.132430957E1,-8.724155389E-2,1.132978401E1
8.950356542E0,7.527716395E-2,1.421215115E1,1.819971015E0,1.432840540E1
8.960417542E0,2.447662745E-1,1.700300145E1,4.315278481E0,1.754376235E1
8.970478542E0,1.195206840E0,1.797672658E1,5.110605644E0,1.872723973E1
8.980539542E0,1.575191657E0,1.851199941E1,4.777404399E0,1.918329856E1
8.990600542E0,2.086501430E0,1.852908264E1,4.130700009E0,1.909824793E1
9.000662542E0,2.543154354E0,1.836444726E1,3.542573025E0,1.887512599E1
9.010723542E0,2.709145405E0,1.804061794E1,3.481808760E0,1.857219310E1
9.020784542E0,1.901878812E0,1.755679125E1,3.264500499E0,1.795870333E1
9.030845542E0,9.960109866E-1,1.662715997E1,3.117149495E0,1.694612367E1
9.040906542E0,4.478894830E-1,1.482348924E1,3.094538312E0,1.514967345E1
9.050968542E0,-2.805939007E-2,1.275816613E1,2.557280935E0,1.301196665E1
9.061029542E0,-2.845477879E-1,1.127467607E1,1.876756250E0,1.143335042E1
9.071090542E0,-3.895210050E-1,1.040635752E1,1.242961927E0,1.048756206E1
9.081151542E0,-4.027178418E-1,9.875565999E0,6.677514428E-1,9.906304934E0
9.091212542E0,-4.603057531E-1,9.396070341E0,1.849848350E-1,9.409157169E0
9.101273542E0,-5.022890173E-1,8.975869544E0,-1.889510562E-1,8.991898066E0
9.111335542E0,-6.002357267E-1,8.823467131E0,-4.259971422E-1,8.854113660E0
9.121396542E0,-7.334058074E-1,8.772512155E0,-6.277664280E-1,8.825471334E0
9.131457542E0,-9.421867087E-1,8.667193276E0,-8.100557148E-1,8.755806378E0
9.141518542E0,-1.237575033E0,8.318760619E0,-9.257276738E-1,8.461107606E0
9.151579542E0,-1.631064288E0,7.912655119E0,-9.129842520E-1,8.130437995E0
9.161641542E0,-2.078196337E0,7.541797805E0,-8.138674416E-1,7.865112483E0
9.171702542E0,-2.519390978E0,7.257515536E0,-7.454468324E-1,7.718455392E0
9.181763542E0,-2.904823061E0,7.050143448E0,-6.510699213E-1,7.652869507E0
9.191824542E0,-3.026847435E0,6.726112976E0,-4.425055861E-1,7.389060316E0
9.201885542E0,-3.018278341E0,5.743977213E0,-4.430640683E-1,6.503813046E0
9.211946542E0,-2.817510975E0,2.914114872E0,-3.972545689E-1,4.072866899E0
9.222008542E0,-2.548791363E0,-2.605470763E0,1.078527040E0,3.801057206E0
9.232069542E0,-1.620627154E0,-9.781760872E0,3.643364990E0,1.056330377E1
9.242130542E0,-1.008783571E-2,-1.802196766E1,4.784276631E0,1.864619862E1
9.252191542E0,3.217938243E0,-2.730284843E1,6.615385423E0,2.827656244E1
9.262252542E0,7.520753676E0,-3.684785730E1,7.351335865E0,3.831929621E1
9.272314542E0,1.070956021E1,-4.624154490E1,6.959166035E0,4.797296266E1
9.282375542E0,1.266109417E1,-5.308982258E1,5.840936328E0,5.489033708E1
9.292436542E0,1.181831275E1,-5.171241036E1,3.766876311E0,5.317927471E1
9.302497542E0,8.105976348E0,-3.791585592E1,3.360862028E0,3.891804692E1
9.312558542E0,4.740833281E0,-2.618191614E1,1.186480455E-1,2.660793698E1
9.322620542E0,2.945448638E0,-1.848391640E1,-2.499554299E0,1.888328904E1
9.332681542E0,7.072144474E-1,-1.100424702E1,-3.502953461E0,1.156997354E1
9.342742542E0,-2.998828236E-1,-5.330505976E0,-3.326278086E0,6.290337795E0
9.352803542E0,-6.852470429E-1,-1.123650661E0,-2.722096987E0,3.023568476E0
9.362864542E0,-1.398244862E-1,4.183061825E0,-3.218251947E0,5.279649866E0
9.372926542E0,-6.069581609E-2,9.003670131E0,-4.840391775E0,1.022248269E1
9.382987542E0,-1.194536456E0,8.173730375E0,-3.701317329E0,9.051880222E0
9.393048542E0,-1.361679701E0,8.008263527E0,-3.390751240E0,8.802479781E0
9.403109542E0,-1.259695196E0,9.530080338E0,-2.562525887E0,9.948658310E0
9.413170542E0,-1.061597524E0,1.053358592E1,-1.045330716E0,1.063842742E1
9.423231542E0,-1.303875442E0,1.240260163E1,-3.380684674E-2,1.247099680E1
9.433293542E0,-1.748843876E0,1.501069603E1,1.254330668E0,1.516419453E1
9.443354542E0,-1.202945410E0,1.555042211E1,1.466688092E0,1.566569115E1
9.453415542E0,-1.109934116E0,1.506967573E1,8.605071726E-1,1.513497780E1
9.463476542E0,-1.624078473E0,1.547904748E1,3.618892930E-1,1.556822102E1
9.473537542E0,-1.772732675E0,1.631857316E1,-5.457196867E-1,1.642364823E1
9.483599542E0,-1.845387692E0,1.629453760E1,-1.576712226E0,1.647432647E1
9.493660542E0,-1.737810034E0,1.640096745E1,-2.572555616E0,1.669220655E1
9.503721542E0,-9.772863749E-1,1.638841582E1,-3.847608817E0,1.686236506E1
9.513782542E0,1.236008272E0,1.537493079E1,-6.008970687E0,1.655366854E1
9.523843542E0,1.550753073E0,1.273467904E1,-4.294907951E0,1.352860375E1
9.533904542E0,4.421797866E-1,1.078163299E1,-1.931569365E0,1.096221206E1
9.543966542E0,2.928602445E-1,9.719540066E0,-1.258583495E0,9.805062908E0
9.554027542E0,4.613835046E-1,9.085909465E0,-1.049529674E0,9.157954907E0
9.564088542E0,7.571422139E-1,8.688685302E0,-8.154942832E-1,8.759654532E0
9.574149542E0,8.355312295E-1,8.335746780E0,-6.381518139E-1,8.401786986E0
9.584210542E0,8.391002968E-1,8.250546416E0,-6.567633551E-1,8.319071077E0
9.594272542E0,7.305591635E-1,8.298220519E0,-7.300508212E-1,8.362245792E0
9.604333542E0,3.895711814E-1,8.380646964E0,-6.877842229E-1,8.417841551E0
9.614394542E0,-2.729948044E-2,8.358400648E0,-5.631652200E-1,8.377395879E0
9.624455542E0,-5.521560093E-1,8.590887696E0,-4.830289833E-1,8.622154294E0
9.634516542E0,-9.302300298E-1,9.084502625E0,-3.453657925E-1,9.138533437E0
9.644577542E0,-8.703610466E-1,9.217726171E0,-1.416756964E-1,9.259809724E0
9.654639542E0,-5.877957389E-1,8.857562830E0,8.878236830E-2,8.877488689E0
9.664700542E0,-6.438103107E-1,8.458755825E0,4.290189102E-1,8.494062576E0
9.674761542E0,-8.486799364E-1,7.483828509E0,7.591124332E-1,7.569953664E0
9.684822542E0,-7.216520999E-1,4.270587627E0,1.351146526E0,4.536992106E0
9.694883542E0,-7.481452493E-1,-2.620509217E0,4.442564179E0,5.211829463E0
9.704945542E0,5.253593163E-1,-1.108863871E1,7.281359312E0,1.327599730E1
9.715006542E0,3.178961289E0,-2.070105896E1,8.755303214E0,2.270010950E1
9.725067542E0,6.118766779E0,-3.113871078E1,9.610225784E0,3.315742836E1
9.735128542E0,7.522036555E0,-4.132846639E1,9.604007270E0,4.309129986E1
9.745189542E0,7.292912825E0,-4.975671787E1,8.036238361E0,5.092640453E1
9.755251542E0,5.592216824E0,-5.288540860E1,4.702510337E0,5.338776017E1
9.765312542E0,2.901534880E0,-4.742980671E1,1.648193268E0,4.754705049E1
9.775373542E0,2.325522450E0,-3.522232667E1,7.936412649E-1,3.530793420E1
9.785434542E0,1.076867089E-1,-2.354939207E1,2.774331334E0,2.371249412E1
9.795495542E0,-1.014946683E0,-1.673654617E1,4.340714161E-1,1.677291008E1
9.805557542E0,-8.153684950E-1,-1.148103600E1,-5.115016783E0,1.259533287E1
9.815618542E0,-4.842910171E0,1.707772302E0,-2.980715944E1,3.024627282E1
9.825679542E0,-2.490105783E0,4.715337959E0,-2.683435782E1,2.735905332E1
9.835740542E0,1.337136159E-1,8.158964986E-1,-6.844396886E0,6.894152244E0
9.845801542E0,-5.002406646E-1,1.563388175E0,-3.131816358E0,3.535915300E0
9.855862542E0,-7.958340438E-1,2.737486859E0,-1.818691498E0,3.381541792E0
9.865924542E0,-2.513421628E-1,4.796814816E0,3.130172414E-1,4.813583390E0
9.875985542E0,4.781388107E-1,6.398743159E0,1.855070681E0,6.679357602E0
9.886046083E0,2.192756156E0,6.623202565E0,2.720748035E0,7.488488609E0
9.896107083E0,3.951087577E0,7.990518397E0,5.081921543E0,1.026086760E1
9.906168083E0,4.641055516E0,1.130126452E1,8.562035780E0,1.491866056E1
9.916230083E0,4.388197938E0,1.382462810E1,8.103232834E0,1.661442162E1
9.926291083E0,3.931550568E0,1.381055034E1,5.711897049E0,1.545361312E1
9.936352083E0,3.269351057E0,1.373856878E1,3.803490990E0,1.462543921E1
9.946413083E0,3.062732967E0,1.409272879E1,2.799475531E0,1.469089518E1
9.956474083E0,3.461125112E0,1.465918716E1,2.276741468E0,1.523334195E1
9.966535083E0,4.109246575E0,1.510705347E1,2.245968157E0,1.581623675E1
9.976597083E0,4.435773223E0,1.564461724E1,2.384459460E0,1.643519941E1
9.986658083E0,4.176782500E0,1.628792206E1,2.457187128E0,1.699351893E1
9.996719083E0,3.606209443E0,1.629006448E1,2.042906637E0,1.680905752E1
1.000678008E1,3.303322795E0,1.582445538E1,1.381638002E0,1.622449546E1
1.001684108E1,2.857393956E0,1.456102644E1,6.290447024E-1,1.485206681E1
1.002690308E1,2.215625055E0,1.260531991E1,-8.816504851E-3,1.279856095E1
1.003696408E1,1.635703323E0,1.072858939E1,-6.215106381E-1,1.087034642E1
1.004702508E1,1.172409715E0,8.968795583E0,-1.615129456E0,9.188170759E0
1.005708608E1,6.427203897E-1,8.178874755E0,-2.497565076E0,8.575833083E0
1.006714708E1,1.985306958E-1,7.893778553E0,-2.970844266E0,8.436650398E0
1.007720908E1,-1.905501783E-1,7.613622664E0,-4.003568092E0,8.604191822E0
1.008727008E1,-8.114251328E-1,7.191584086E0,-5.792197446E0,9.269673332E0
1.009733108E1,-5.216657764E-1,7.337525911E0,-5.529235294E0,9.202383638E0
1.010739208E1,9.631657876E-2,7.500925768E0,-4.624909599E0,8.812658683E0
1.011745308E1,5.452974081E-1,7.516308038E0,-3.325913512E0,8.237350089E0
1.012751408E1,8.795881721E-1,7.004891846E0,-2.608840513E0,7.526502106E0
1.013757608E1,1.003582473E0,5.146829145E0,-2.599607175E0,5.852775879E0
1.014763708E1,1.161455688E0,1.567499937E0,-2.283197525E0,3.003169377E0
1.015769808E1,7.998615329E-1,-3.775204500E0,-6.539366649E-1,3.914023588E0
1.016775908E1,-4.465796337E-2,-1.073973302E1,3.221147488E0,1.121247746E1
1.017782008E1,2.309211642E-3,-1.895037219E1,6.997526693E0,2.020103936E1
1.018788208E1,7.671709196E-1,-2.734744866E1,8.685851741E0,2.870392865E1
1.019794308E1,1.396973494E0,-3.589365252E1,7.767992665E0,3.675115693E1
1.020800408E1,2.160993203E0,-4.501739990E1,5.669267339E0,4.542440729E1
1.021806508E1,3.115188046E0,-5.236705527E1,4.078768548E0,5.261795537E1
1.022812608E1,4.029284439E0,-5.148743289E1,2.560075319E0,5.170826689E1
1.023818808E1,4.275054315E0,-3.987460533E1,8.895028572E-1,4.011298362E1
1.024824908E1,2.450698180E0,-2.799944361E1,-2.702531911E-1,2.810778897E1
1.025831008E1,1.830181423E-1,-1.896411314E1,-8.788004060E-1,1.898534627E1
1.026837108E1,-1.389864742E0,-1.164897622E1,-1.190596603E0,1.179185699E1
1.027843208E1,-2.075369647E0,-5.957338604E0,-1.296419073E0,6.440321795E0
1.028849408E1,-2.170790213E0,-1.370008475E0,-1.240953408E0,2.851178481E0
1.029855508E1,-1.999621892E0,3.790275698E0,3.464315937E-1,4.299382796E0
1.030861608E1,-1.214870953E0,7.839447979E0,1.751274709E-1,7.934955935E0
1.031867708E1,-4.783151042E-1,8.835401298E0,-1.486243082E0,8.972291788E0
1.032873808E1,1.652345668E-1,1.104103302E1,-1.690173937E0,1.117087287E1
1.033879908E1,1.384857771E0,1.280011990E1,-1.528393905E0,1.296521841E1
1.034886108E1,2.537255683E0,1.432449721E1,-1.226852409E0,1.459911140E1
1.035892208E1,4.254170984E0,1.568225109E1,-1.273746933E0,1.629887730E1
1.036898308E1,6.773145640E0,1.583594048E1,-1.648231859E0,1.730228831E1
1.037904408E1,8.055158197E0,1.575454373E1,-1.656945526E0,1.777179479E1
1.038910508E1,8.251505944E0,1.621525053E1,-1.531741875E0,1.825836611E1
1.039916708E1,7.596595572E0,1.678546164E1,-1.676228912E0,1.850053324E1
1.040922808E1,6.567483863E0,1.747153884E1,-2.425717998E0,1.882207804E1
1.041928908E1,5.497489591E0,1.781358809E1,-2.950902629E0,1.887469573E1
1.042935008E1,4.682087475E0,1.714434269E1,-2.638205230E0,1.796692951E1
1.043941108E1,4.027651311E0,1.593064549E1,-2.201276134E0,1.657869287E1
1.044947308E1,3.567482164E0,1.421849421E1,-1.868546613E0,1.477782031E1
1.045953408E1,3.055208770E0,1.235351308E1,-1.460352196E0,1.280922381E1
1.046959508E1,2.415362287E0,1.080501250E1,-1.094884845E0,1.112569292E1
1.047965608E1,1.654245867E0,9.633511151E0,-7.531197681E-1,9.803481824E0
1.048971708E1,8.149788512E-1,9.147729737E0,-5.280071548E-1,9.199127210E0
1.049977808E1,5.697161481E-2,8.906560158E0,-2.884502379E-1,8.911411962E0
1.050984008E1,-5.346118042E-1,8.549637929E0,-5.105540201E-2,8.566488496E0
1.051990108E1,-1.044450125E0,8.295389298E0,-1.395484793E-1,8.362047204E0
1.052996208E1,-1.566117217E0,7.823283936E0,-2.906112226E-1,7.983792931E0
1.054002308E1,-2.056185956E0,7.072341233E0,-2.054074234E-1,7.368046105E0
1.055008408E1,-2.411732628E0,6.181629025E0,-8.966347061E-2,6.636040326E0
1.056014608E1,-2.536212832E0,5.394264600E0,-9.549446024E-2,5.961508643E0
1.057020708E1,-2.569402213E0,4.768923597E0,-1.553255097E-1,5.419279106E0
1.058026808E1,-2.448041644E0,4.133741730E0,-1.322734467E-1,4.806061262E0
1.059032908E1,-2.117780087E0,3.102278856E0,-1.519662112E-1,3.759284550E0
1.060039008E1,-1.436285495E0,5.138316768E-1,5.038844667E-1,1.606498855E0
1.061045208E1,-4.657891989E-1,-5.162225448E0,3.072006651E0,6.025176846E0
1.062051308E1,4.638844684E-1,-1.235512925E1,6.913185285E0,1.416532874E1
1.063057408E1,1.900794299E0,-2.025263599E1,8.879205714E0,2.219510256E1
1.064063508E1,3.690996993E0,-2.807651225E1,9.115790491E0,2.974914512E1
1.065069608E1,4.923195950E0,-3.557966639E1,8.005541648E0,3.679998935E1
1.066075708E1,5.465901178E0,-4.189152987E1,5.897422185E0,4.265625322E1
1.067081908E1,4.933156098E0,-4.521658413E1,3.511887422E0,4.562026811E1
1.068088008E1,3.351172022E0,-4.239797359E1,1.639103771E0,4.256178073E1
1.069094108E1,2.196470746E0,-3.290706784E1,1.792300236E-1,3.298077805E1
1.070100208E1,3.345712477E-1,-2.352529218E1,4.170830619E-1,2.353136776E1
1.071106308E1,-2.925922739E0,-1.551478567E1,-6.719047201E-1,1.580256479E1
1.072112508E1,-3.891268515E0,-1.056000598E1,-4.511919466E0,1.212489646E1
1.073118608E1,-2.436255265E0,-6.372032493E0,-3.870631059E0,7.843463687E0
1.074124708E1,-1.533991006E0,-1.275057878E0,-2.314774975E0,3.055664279E0
1.075130808E1,-1.163725138E0,3.969807438E0,-4.929938375E0,6.435675541E0
1.076136908E1,-1.500210911E0,8.244569392E0,-1.165735411E1,1.435679150E1
1.077143108E1,-1.798734512E0,8.265960846E0,-7.852785478E0,1.154243451E1
1.078149208E1,-2.097555591E0,6.992288758E0,-3.648811086E0,8.161229311E0
1.079155308E1,-1.661169116E0,7.042947865E0,-2.532426175E0,7.666536362E0
1.080161408E1,-1.054739178E0,7.571629130E0,-2.045591239E0,7.913689780E0
1.081167508E1,-8.491917139E-1,8.933793565E0,-1.008977407E0,9.030605153E0
1.082173708E1,-6.271967630E-1,1.080988440E1,9.840495569E-1,1.087268734E1
1.083179808E1,1.533722656E-1,1.264037631E1,1.897285239E0,1.278289199E1
1.084185908E1,1.249459645E0,1.284142347E1,1.326946070E0,1.297012305E1
1.085192008E1,2.612294756E0,1.265557089E1,8.595593389E-1,1.295092277E1
1.086198108E1,4.141255987E0,1.263211069E1,7.019301724E-1,1.331213460E1
1.087204208E1,5.927634748E0,1.273836512E1,8.874646640E-1,1.407801098E1
1.088210408E1,7.427867147E0,1.282840523E1,9.954235607E-1,1.485705418E1
1.089216546E1,8.391767784E0,1.294226455E1,7.874625121E-1,1.544487214E1
1.090222646E1,8.662669285E0,1.304835409E1,2.279490244E-1,1.566375895E1
1.091228746E1,8.013756402E0,1.315317128E1,-4.601853736E-1,1.540902258E1
1.092234846E1,6.267329911E0,1.301253755E1,-1.066716907E0,1.448252198E1
1.093241046E1,4.475220879E0,1.244926825E1,-1.562356727E0,1.332114261E1
1.094247146E1,3.151126496E0,1.153321655E1,-1.929429284E0,1.211063085E1
1.095253246E1,2.043207183E0,1.052984136E1,-2.223983796E0,1.095437623E1
1.096259346E1,1.053917717E0,9.707584264E0,-2.523408599E0,1.008541153E1
1.097265446E1,2.792035241E-1,9.056729520E0,-2.798383271E0,9.483314459E0
1.098271546E1,-3.931008166E-1,8.543513555E0,-3.055628015E0,9.082016003E0
1.099277746E1,-9.708436203E-1,8.220946056E0,-3.292050240E0,8.908652321E0
1.100283846E1,-1.255294290E0,7.992639767E0,-3.186389299E0,8.695466115E0
1.101289946E1,-1.036633056E0,7.874383923E0,-2.560461820E0,8.344848411E0
1.102296046E1,-7.163299643E-1,7.584567849E0,-2.139374731E0,7.913009688E0
1.103302146E1,-2.022413023E-1,6.995898244E0,-1.859849172E0,7.241721668E0
1.104308346E1,2.904208044E-1,5.969181554E0,-1.615040140E0,6.190624147E0
1.105314446E1,8.072237621E-1,3.556917999E0,-1.340367184E0,3.885853837E0
1.106320546E1,1.658306612E0,-1.199721183E0,-1.171092776E-1,2.050128366E0
1.107326646E1,2.409245222E0,-7.383708975E0,3.309089026E0,8.442374722E0
1.108332746E1,3.414982979E0,-1.485821936E1,6.316921901E0,1.650249356E1
1.109338946E1,4.494926580E0,-2.227590358E1,7.119272740E0,2.381395158E1
1.110345046E1,4.778936369E0,-2.923419546E1,6.812502664E0,3.039550311E1
1.111351146E1,4.369962519E0,-3.547801605E1,6.167399241E0,3.627427475E1
1.112357246E1,2.994597702E0,-3.947796764E1,4.776472353E0,3.987846829E1
1.113363346E1,5.144028036E-1,-3.931892806E1,2.738179754E0,3.941751314E1
1.114369546E1,-5.464125086E-1,-3.325486022E1,1.101788433E0,3.327759356E1
1.115375646E1,-1.839335239E-1,-2.505879466E1,3.453247889E-1,2.506184890E1
1.116381746E1,-8.162772985E-1,-1.860000819E1,3.573014215E-2,1.861794538E1
1.117387846E1,-1.701309667E0,-1.322789635E1,2.167562842E-2,1.333687244E1
1.118393946E1,-2.549700605E0,-8.007634367E0,9.767317665E-1,8.460330151E0
1.119400146E1,-3.006462287E0,-3.365750300E0,1.349893468E0,4.710552297E0
1.120406246E1,-3.283603937E0,-2.928665668E-1,-2.064819954E-1,3.303098614E0
1.121412346E1,-3.760822104E0,2.418822961E0,-1.928877014E0,4.869810464E0
1.122418446E1,-3.577435879E0,4.588438761E0,-2.704185796E0,6.415951882E0
1.123424546E1,-2.975356269E0,6.148196400E0,-3.311543395E0,7.590743282E0
1.124430646E1,-2.640940850E0,7.410617276E0,-4.155641307E0,8.897256412E0
1.125436846E1,-2.605094787E0,9.138201699E0,-4.870238888E0,1.067766248E1
1.126442946E1,-2.487126042E0,9.646286733E0,-3.355137019E0,1.051159303E1
1.127449046E1,-2.612130157E0,1.072491149E1,-1.535489502E0,1.114471527E1
1.128455146E1,-2.200945766E0,1.132332724E1,-1.434408100E0,1.162408829E1
1.129461246E1,-1.322546625E0,1.245651763E1,-1.728727407E0,1.264525443E1
1.130467446E1,-7.630334298E-1,1.318762892E1,-9.398498690E-1,1.324307722E1
1.131473546E1,-3.569654624E-1,1.311838034E1,-8.407899959E-1,1.315014278E1
1.132479646E1,-1.136874139E-2,1.309801098E1,-9.173446669E-1,1.313010062E1
1.133485746E1,4.801405319E-1,1.307067642E1,-9.742034304E-1,1.311572298E1
1.134491846E1,1.199250920E0,1.292316169E1,-1.169517975E0,1.303127328E1
1.135497946E1,2.202953115E0,1.262446838E1,-1.348797115E0,1.288601792E1
1.136504146E1,3.354866878E0,1.197077773E1,-1.481167114E0,1.251992441E1
1.137510246E1,4.438518491E0,1.119550477E1,-1.493733804E0,1.213552694E1
1.138516346E1,5.495060073E0,1.059152013E1,-1.497380127E0,1.202572789E1
1.139522446E1,6.585740624E0,9.991782918E0,-1.826314659E0,1.210550002E1
1.140528546E1,7.735974482E0,9.105503485E0,-2.774069379E0,1.226584509E1
1.141534746E1,7.146810787E0,8.650625190E0,-2.867107936E0,1.158147350E1
1.142540846E1,4.697860631E0,8.986373482E0,-2.456773145E0,1.043362531E1
1.143546946E1,2.685544873E0,9.988428955E0,-2.026792295E0,1.053986486E1
1.144553046E1,1.837488834E0,1.085578154E1,-1.449291603E0,1.110517015E1
1.145559146E1,1.420666120E0,1.126817396E1,-1.150030521E0,1.141545474E1
1.146565346E1,1.132634981E0,1.106727533E1,-1.009161155E0,1.117075876E1
1.147571446E1,1.141975323E0,1.043090180E1,-8.738774890E-1,1.052955278E1
1.148577546E1,1.662666150E0,9.428961514E0,-6.925073844E-1,9.599444798E0
1.149583646E1,2.249035899E0,7.831904486E0,-5.336094452E-1,8.165882034E0
1.150589746E1,2.624157295E0,4.684331344E0,-3.169461317E-1,5.378625893E0
1.151595946E1,2.738984623E0,-4.894101959E-1,1.375253866E0,3.103688499E0
1.152602046E1,2.512343621E0,-7.472771425E0,4.393317175E0,9.025265594E0
1.153608146E1,2.145533311E0,-1.486773161E1,6.532830339E0,1.638080061E1
1.154614246E1,1.690480185E0,-2.142400636E1,6.446740614E0,2.243671626E1
1.155620346E1,1.333091348E0,-2.699538312E1,5.484862529E0,2.757918707E1
1.156626446E1,8.310469267E-1,-3.203444107E1,4.508354711E0,3.236079906E1
1.157632646E1,4.541611335E-1,-3.644400649E1,3.512630603E0,3.661571309E1
1.158638746E1,4.273322077E-1,-3.881315560E1,2.284592379E0,3.888268281E1
1.159644846E1,1.923328299E0,-3.560369845E1,1.418219645E0,3.568380419E1
1.160650946E1,3.328995872E0,-2.710650361E1,8.268752307E-1,2.732267326E1
1.161657046E1,2.450471747E0,-2.054191880E1,6.231962442E-3,2.068756338E1
1.162663246E1,9.633037819E-1,-1.522526429E1,-4.583907169E-1,1.526259313E1
1.163669346E1,-2.983038926E-1,-1.068713848E1,-6.536597992E-1,1.071126441E1
1.164675446E1,-1.165321136E0,-6.894797546E0,-6.006118123E-1,7.018328939E0
1.165681546E1,-1.687737987E0,-3.625294170E0,-1.987772655E-1,4.003839374E0
1.166687646E1,-1.705745072E0,-1.033275511E0,-1.256442390E-1,1.998251988E0
1.167693846E1,-1.294030485E0,8.942778397E-1,-4.744967262E-1,1.642983534E0
1.168699946E1,-5.906940209E-1,2.387063225E0,-8.029618728E-1,2.586839391E0
1.169706046E1,3.637924886E-1,3.610467385E0,-9.069025630E-1,3.740359872E0
1.170712146E1,1.306054846E0,4.655483521E0,-1.021010976E0,4.941838675E0
1.171718246E1,1.915526213E0,5.554598762E0,-1.356236528E0,6.030106599E0
1.172724446E1,2.185383548E0,6.285837518E0,-1.916637915E0,6.925399299E0
1.173730546E1,2.363713685E0,7.365043493E0,-4.026818376E0,8.720451494E0
1.174736646E1,2.469487916E0,8.494640772E0,-5.984358587E0,1.068034831E1
1.175742746E1,2.077739670E0,8.168188384E0,-3.367803842E0,9.076255083E0
1.176748846E1,1.950383804E0,8.687027616E0,-2.501242390E0,9.247954329E0
1.177755046E1,1.866181268E0,9.677421402E0,-2.348561795E0,1.013167607E1
1.178761146E1,1.972165560E0,1.057508946E1,-2.055879854E0,1.095210464E1
1.179767246E1,1.761216438E0,1.236837904E1,-1.342171635E0,1.256503514E1
1.180773346E1,2.198403250E0,1.375065848E1,-8.210987663E-1,1.394947271E1
1.181779446E1,2.746583665E0,1.491943971E1,-6.159130986E-1,1.518264641E1
1.182785546E1,3.306040581E0,1.495830264E1,-7.418479443E-1,1.533724423E1
1.183791746E1,3.859239806E0,1.537961441E1,-4.780524181E-1,1.586363153E1
1.184797846E1,4.613681776E0,1.529998118E1,-2.997423077E-1,1.598328280E1
1.185803946E1,5.146718633E0,1.482555214E1,-3.833567606E-1,1.569817414E1
1.186810046E1,4.856365491E0,1.420116774E1,-4.556325853E-1,1.501549373E1
1.187816146E1,3.319564021E0,1.297494581E1,-7.002859354E-1,1.341115671E1
1.188822308E1,1.811642533E0,1.129713171E1,-9.099986637E-1,1.147760128E1
1.189828408E1,7.908303621E-1,9.895605576E0,-1.048223772E0,9.982344186E0
1.190834508E1,-9.909671053E-2,8.960948619E0,-1.204878281E0,9.042132049E0
1.191840608E1,-9.382636656E-1,8.513950617E0,-1.365014368E0,8.673578157E0
1.192846708E1,-1.569733720E0,8.119061247E0,-1.447350765E0,8.395120233E0
1.193852908E1,-1.974479888E0,7.551652703E0,-1.542550453E0,7.956474802E0
1.194859008E1,-2.258317769E0,6.716746906E0,-1.600607457E0,7.264752740E0
1.195865108E1,-2.202755187E0,5.322343848E0,-1.387511091E0,5.924918689E0
1.196871208E1,-2.064817615E0,3.623628298E0,-1.366624106E0,4.388828463E0
1.197877308E1,-1.856468312E0,2.821158761E-1,-1.478000847E0,2.389675807E0
1.198883408E1,-1.417857556E0,-4.708176289E0,-6.520354427E-2,4.917468406E0
1.199889608E1,-3.601833679E-1,-1.084759543E1,2.456954409E0,1.112819319E1
1.200895708E1,9.437489386E-1,-1.800194913E1,5.009896710E0,1.870988775E1
1.201901808E1,2.286210449E0,-2.534958838E1,6.649440191E0,2.630671862E1
1.202907908E1,3.440050870E0,-3.298191220E1,7.168130320E0,3.392672360E1
1.203914008E1,4.193770416E0,-3.981822882E1,7.347048687E0,4.070697951E1
1.204920208E1,4.159770611E0,-4.334263103E1,5.866143090E0,4.393516805E1
1.205926308E1,2.632769659E0,-4.118055054E1,3.849834852E0,4.144382279E1
1.206932408E1,2.514916103E0,-3.180182246E1,1.897734890E0,3.195750479E1
1.207938508E1,2.150317065E0,-2.316826821E1,4.788607956E-1,2.327276999E1
1.208944608E1,9.041466241E-1,-1.641340799E1,5.139987610E-1,1.644632596E1
1.209950808E1,1.015373383E-1,-1.100213500E1,4.889112823E-1,1.101346080E1
1.210956908E1,-3.248303711E-2,-7.082501940E0,-3.212296557E-1,7.089857358E0
1.211963008E1,2.411011666E-1,-4.054651707E0,-1.259879676E0,4.252719957E0
1.212969108E1,6.129761153E-1,-1.245824139E0,-1.557208984E0,2.086316688E0
1.213975208E1,1.041674379E0,1.372715151E0,-1.548936782E0,2.317032056E0
1.214981408E1,1.319290457E0,3.833275537E0,-1.744015099E0,4.413175424E0
1.215987508E1,1.427753237E0,5.807686136E0,-2.056957642E0,6.324458261E0
1.216993608E1,1.737397951E0,7.301723410E0,-2.354511191E0,7.866221414E0
1.217999708E1,2.085094736E0,9.018634325E0,-3.883270985E0,1.003808641E1
1.219005808E1,2.401672639E0,1.140588758E1,-7.838598964E0,1.404656317E1
1.220012008E1,2.151170319E0,1.157992177E1,-4.256144419E0,1.252345349E1
1.221018108E1,2.056910572E0,1.142422211E1,-2.291420318E0,1.183192035E1
1.222024208E1,1.780109376E0,1.206006706E1,-1.605950204E0,1.229605965E1
1.223030308E1,1.041230648E0,1.323348395E1,-9.560367161E-1,1.330876647E1
1.224036408E1,7.228613041E-1,1.321055351E1,-8.631309644E-1,1.325844062E1
1.225042608E1,7.034361959E-1,1.356572275E1,-4.292026589E-1,1.359072739E1
1.226048708E1,7.255171095E-1,1.457564799E1,8.464955628E-2,1.459393898E1
1.227054808E1,9.355114543E-1,1.502329094E1,2.598881974E-1,1.505463364E1
1.228060908E1,7.253609888E-1,1.565689756E1,4.676672515E-1,1.568066652E1
1.229067008E1,7.477621105E-1,1.566554209E1,5.346851137E-1,1.569249009E1
1.230073108E1,1.225382566E0,1.516161969E1,7.119318348E-1,1.522770898E1
1.231079308E1,1.616451365E0,1.417146856E1,9.960438772E-1,1.429809566E1
1.232085408E1,1.484348438E0,1.243162487E1,1.225234923E0,1.257973719E1
1.233091508E1,1.164500041E0,1.046894963E1,1.127560109E0,1.059369428E1
1.234097608E1,8.183236778E-1,9.109947953E0,7.493475831E-1,9.177272315E0
1.235103708E1,3.828144313E-1,8.324773310E0,1.928254578E-1,8.335801054E0
1.236109908E1,-1.334906908E-1,7.803153142E0,-3.189417133E-1,7.810809340E0
1.237116008E1,-5.837377712E-1,7.260713963E0,-6.856790060E-1,7.316342853E0
1.238122108E1,-8.544058954E-1,6.591286708E0,-1.011810383E0,6.723007523E0
1.239128208E1,-9.476637957E-1,6.097179444E0,-1.143699083E0,6.275484956E0
1.240134308E1,-9.498699501E-1,5.926393969E0,-1.083537154E0,6.099053300E0
1.241140508E1,-9.293239307E-1,6.286395927E0,-9.093893838E-1,6.419455255E0
1.242146608E1,-8.368684146E-1,6.803964559E0,-7.803495204E-1,6.899509247E0
1.243152708E1,-4.986514279E-1,6.427272309E0,-3.718397192E-1,6.457301864E0
1.244158808E1,4.586614430E-2,5.247671980E0,-1.164303428E-1,5.249163832E0
1.245164908E1,6.074350744E-1,2.837075467E0,-5.078986533E-1,2.945494121E0
1.246171108E1,1.680496795E0,-2.651230488E0,9.339423539E-1,3.274956625E0
1.247177208E1,2.703371864E0,-9.223555845E0,4.255007721E0,1.051129357E1
1.248183308E1,4.072180490E0,-1.678396709E1,6.654649476E0,1.850860786E1
1.249189408E1,5.283892558E0,-2.453998291E1,8.327207506E0,2.644754556E1
1.250195508E1,5.838638957E0,-3.163250814E1,8.008199208E0,3.314870330E1
1.251201708E1,5.479691252E0,-3.767562657E1,6.629559073E0,3.864493378E1
1.252207808E1,4.271240761E0,-4.098877122E1,4.146787453E0,4.141882073E1
1.253213908E1,2.408002543E0,-3.953082647E1,2.180054834E0,3.966405623E1
1.254220008E1,2.094617219E0,-3.105278945E1,1.334838642E0,3.115196540E1
1.255226108E1,1.639051438E0,-2.261144956E1,6.761286025E-1,2.268085736E1
1.256232308E1,3.805701238E-1,-1.642333188E1,-2.499146748E-1,1.642964154E1
1.257238408E1,-6.253341325E-1,-1.135018233E1,-1.296111363E0,1.144104831E1
1.258244508E1,-1.376241606E0,-6.815974156E0,-2.098046465E0,7.263149704E0
1.259250608E1,-1.859080848E0,-1.984961314E0,-4.059641721E0,4.886403986E0
1.260256708E1,-1.972332059E0,3.715536003E0,-9.380056572E0,1.028011492E1
1.261262808E1,-1.405235756E0,6.597179532E0,-1.087820912E1,1.279972261E1
1.262269008E1,-9.568445089E-1,6.625518647E0,-6.266548138E0,9.169660535E0
1.263275108E1,-9.181338217E-1,6.397455602E0,-2.998076211E0,7.124525869E0
1.264281208E1,-7.057723048E-1,6.437378052E0,-1.760896449E0,6.711088364E0
1.265287308E1,-1.840660181E-1,6.737186433E0,-1.000864395E0,6.813610707E0
1.266293408E1,5.447293511E-1,7.462313679E0,8.831218638E-1,7.534106433E0
1.267299608E1,7.441187835E-1,8.874998057E0,1.957122136E0,9.118641913E0
1.268305708E1,6.647877815E-1,9.638805805E0,1.514199643E0,9.779638066E0
1.269311808E1,4.621397323E-1,1.095601568E1,1.161932967E0,1.102714563E1
1.270317908E1,5.034603608E-1,1.199075065E1,7.060805992E-1,1.202206818E1
1.271324008E1,7.669121803E-1,1.317445514E1,8.417067663E-1,1.322357338E1
1.272330208E1,1.461703487E0,1.426366863E1,1.061441549E0,1.437760334E1
1.273336308E1,2.389386908E0,1.545999725E1,1.487853844E0,1.571414630E1
1.274342408E1,4.159608351E0,1.587841816E1,1.964781404E0,1.653139047E1
1.275348508E1,6.543674001E0,1.568457361E1,2.205763872E0,1.713741267E1
1.276354608E1,9.472398140E0,1.478614658E1,2.413580933E0,1.772517504E1
1.277360708E1,1.198858250E1,1.265530542E1,1.734221159E0,1.751828727E1
1.278366908E1,1.307015017E1,1.040057814E1,-6.450706780E-2,1.670344312E1
1.279373008E1,1.149051083E1,8.359603420E0,-1.770162093E0,1.431950705E1
1.280379108E1,7.526641238E0,7.148742707E0,-4.101873820E0,1.116155094E1
1.281385208E1,3.183584390E0,6.995991215E0,-6.634370162E0,1.015352008E1
1.282391308E1,9.410471595E-1,7.212817665E0,-6.562210844E0,9.796576932E0
1.283397508E1,-6.750798678E-2,7.881162601E0,-4.512088743E0,9.081642257E0
1.284403608E1,-5.969581065E-1,8.398193289E0,-2.499792865E0,8.782651870E0
1.285409708E1,-1.135747527E0,8.165765297E0,-1.579829376E0,8.394373484E0
1.286415808E1,-1.338249030E0,6.691507984E0,-8.303566629E-1,6.874349552E0
1.287421908E1,-1.441640082E0,4.235054097E0,1.511604649E-1,4.476254999E0
1.288428108E1,-2.092051169E0,1.714370300E0,9.913305098E-1,2.880708211E0
1.289434304E1,-3.407059125E0,-2.365930218E0,1.914392438E0,4.568432563E0
1.290440404E1,-4.562795797E0,-7.668673614E0,4.696633301E0,1.008394887E1
1.291446504E1,-4.307595824E0,-1.428672888E1,7.649871308E0,1.676861756E1
1.292452604E1,-3.283238486E0,-2.135184704E1,8.867597237E0,2.335198724E1
1.293458804E1,-2.147949673E0,-2.825578086E1,9.065686285E0,2.975213451E1
1.294464904E1,-1.148424144E0,-3.461156161E1,8.285415702E0,3.560796523E1
1.295471004E1,2.138706833E-2,-3.920175687E1,6.164989604E0,3.968356456E1
1.296477104E1,9.724387407E-1,-4.052537237E1,3.743966335E0,4.070956554E1
1.297483204E1,2.177908760E0,-3.543731476E1,2.037837685E0,3.556261163E1
1.298489404E1,2.198618720E0,-2.687406977E1,8.381024694E-1,2.697687836E1
1.299495504E1,1.113414598E0,-1.973678059E1,1.384988310E-1,1.976864644E1
1.300501604E1,8.214044295E-2,-1.369577301E1,-1.799085199E-1,1.369720090E1
1.301507704E1,-1.539262271E0,-6.776297874E0,1.734773867E-1,6.951088808E0
1.302513804E1,-9.665147804E-1,-1.485102144E0,-6.660704268E0,6.892362479E0
1.303520004E1,2.225916300E0,-6.478206235E-1,-3.295804152E0,4.029478868E0
1.304526104E1,4.234308577E0,3.918696342E0,-4.476451718E0,7.302340044E0
1.305532204E1,6.266696073E0,8.160207519E0,-1.324822946E1,1.677426750E1
1.306538304E1,4.870524232E0,8.677716510E0,-1.124246258E1,1.501391805E1
1.307544404E1,3.580449534E0,8.405680064E0,-7.183066447E0,1.162202735E1
1.308550604E1,3.150445587E0,8.509989713E0,-4.579804178E0,1.016463667E1
1.309556704E1,3.259040369E0,8.528344708E0,-2.142315735E0,9.377820871E0
1.310562804E1,3.748518392E0,8.989060863E0,-1.313367227E-1,9.740218410E0
1.311568904E1,3.567265817E0,1.082933107E1,1.278095507E0,1.147315671E1
1.312575004E1,3.184695361E0,1.345254404E1,1.592219626E0,1.391576046E1
1.313581204E1,3.548350659E0,1.455602590E1,1.528857443E0,1.506008259E1
1.314587304E1,3.894480098E0,1.436146097E1,9.624329853E-1,1.491123112E1
1.315593404E1,4.052780890E0,1.436828350E1,5.381631106E-1,1.493861517E1
1.316599504E1,4.248874576E0,1.512848585E1,6.665567105E-1,1.572794701E1
1.317605604E1,4.812936174E0,1.544554878E1,7.711599632E-1,1.619641996E1
1.318611704E1,5.629233792E0,1.532950377E1,6.174378332E-1,1.634206806E1
1.319617904E1,5.970315914E0,1.473805791E1,3.223621152E-1,1.590468297E1
1.320624004E1,5.396130447E0,1.305382241E1,-2.534738749E-1,1.412744677E1
1.321630104E1,4.068025458E0,1.094163270E1,-8.377924208E-1,1.170342058E1
1.322636204E1,2.768878806E0,9.722197040E0,-1.340852503E0,1.019733743E1
1.323642304E1,1.748265440E0,8.920327427E0,-1.700404226E0,9.247705012E0
1.324648504E1,8.713916183E-1,8.504217927E0,-1.973870169E0,8.773665673E0
1.325654604E1,1.240356883E-1,8.376142269E0,-2.101675247E0,8.636676618E0
1.326660704E1,-3.343710537E-1,8.444894416E0,-2.064209797E0,8.699942976E0
1.327666804E1,-6.603823431E-1,8.430906706E0,-1.862910043E0,8.659487662E0
1.328672904E1,-9.037821963E-1,8.449060557E0,-1.572230920E0,8.641490416E0
1.329679104E1,-1.000978416E0,8.165455980E0,-1.260182562E0,8.322541032E0
1.330685204E1,-9.539697254E-1,7.282722883E0,-1.048910893E0,7.419455835E0
1.331691304E1,-7.755610163E-1,5.539784841E0,-6.488930029E-1,5.631320725E0
1.332697404E1,-5.413823683E-1,1.771630914E0,9.861826211E-1,2.098648881E0
1.333703504E1,-3.435125906E-1,-5.092631888E0,5.176818345E0,7.269962078E0
1.334709704E1,-1.386755631E-1,-1.228431947E1,9.100497683E0,1.528864918E1
1.335715804E1,1.017407922E0,-1.992791438E1,1.001063083E1,2.232419360E1
1.336721904E1,2.267436356E0,-2.714831588E1,8.855266628E0,2.864590843E1
1.337728004E1,3.038898547E0,-3.401689744E1,6.474241238E0,3.476061011E1
1.338734104E1,3.338756045E0,-4.006550055E1,3.930091395E0,4.039600531E1
1.339740304E1,3.594240192E0,-4.358661897E1,2.090185468E0,4.378448117E1
1.340746404E1,3.828764118E0,-4.104009107E1,9.625218630E-1,4.122953987E1
1.341752504E1,3.623599062E0,-3.191865450E1,1.247988047E-1,3.212392489E1
1.342758604E1,2.071962913E0,-2.312003570E1,-3.308939338E-1,2.321505055E1
1.343764704E1,2.762310190E-1,-1.608755903E1,-4.930201207E-1,1.609748204E1
1.344770904E1,-1.499236034E0,-9.698227549E0,-1.074051654E-1,9.814013560E0
1.345777004E1,-2.501814540E0,-4.327595056E0,1.786732956E-1,5.001907547E0
1.346783104E1,-2.021747610E0,-1.164795179E0,5.686461076E-2,2.333976176E0
1.347789204E1,-1.870059287E0,2.120334882E0,-4.758084760E-1,2.866938342E0
1.348795304E1,-1.401120778E0,5.091274164E0,-7.468281640E-1,5.333100820E0
1.349801504E1,-7.109568847E-1,7.070495852E0,-1.280789465E0,7.220650451E0
1.350807604E1,-1.276348140E-1,8.143525413E0,-1.771361357E0,8.334927585E0
1.351813704E1,4.095790743E-1,9.044754422E0,-1.866516606E0,9.244415710E0
1.352819804E1,6.908342768E-1,1.045257859E1,-1.410486994E0,1.056991603E1
1.353825904E1,1.054108483E0,1.207455412E1,-1.091334927E0,1.216951165E1
1.354832004E1,1.673962532E0,1.327180544E1,-1.865539536E0,1.350641358E1
1.355838204E1,2.913530735E0,1.395620682E1,-3.305722784E0,1.463530572E1
1.356844304E1,3.709445251E0,1.321183288E1,-2.567089639E0,1.396074717E1
1.357850404E1,5.188023949E0,1.318691205E1,-2.612821882E0,1.440961763E1
1.358856504E1,7.174885023E0,1.312457605E1,-3.611672496E0,1.538758103E1
1.359862604E1,9.334293923E0,1.278622341E1,-5.198601562E0,1.666259315E1
1.360868804E1,9.809170280E0,1.180605465E1,-6.154264641E0,1.653716183E1
1.361874904E1,6.775132524E0,1.049542465E1,-6.019360605E0,1.386683314E1
1.362881004E1,3.492672887E0,9.762006054E0,-4.788742735E0,1.142048962E1
1.363887104E1,1.683411632E0,9.521891313E0,-3.177801493E0,1.017834521E1
1.364893204E1,6.172071605E-1,9.320513206E0,-1.966771650E0,9.545737364E0
1.365899404E1,-2.465231435E-1,9.123795914E0,-1.265507183E0,9.214441598E0
1.366905504E1,-8.102178289E-1,8.959000327E0,-7.797648720E-1,9.029295268E0
1.367911604E1,-1.291323517E0,9.024779164E0,-3.888136015E-1,9.124983913E0
1.368917704E1,-1.766453350E0,9.198249680E0,-4.258472342E-2,9.366427712E0
1.369923804E1,-2.224456835E0,9.240043239E0,2.533961070E-1,9.507408525E0
1.370930004E1,-2.665721058E0,9.292043697E0,6.436246616E-1,9.688260811E0
1.371936104E1,-3.067773852E0,9.351489415E0,1.187652529E0,9.913229001E0
1.372942204E1,-3.545956809E0,9.593041402E0,1.849261472E0,1.039326806E1
1.373948304E1,-3.955576777E0,9.677672247E0,2.697503014E0,1.079724272E1
1.374954404E1,-4.041465358E0,9.677910229E0,3.778607579E0,1.114779188E1
1.375960604E1,-3.501727885E0,9.626904967E0,5.294480696E0,1.153130189E1
1.376966704E1,-2.015117744E0,8.448218558E0,6.259998672E0,1.070610479E1
1.377972804E1,-9.520002370E-1,6.514539079E0,5.176212573E0,8.374885102E0
1.378978904E1,-8.508610209E-1,3.071477478E0,3.746727975E0,4.918933715E0
1.379985004E1,-1.445661066E0,-2.368246300E0,5.622042301E0,6.269440652E0
1.380991204E1,-1.220676873E0,-8.379469920E0,8.388236650E0,1.191923161E1
1.381997304E1,-2.823386550E-1,-1.462459971E1,8.867523562E0,1.710530929E1
1.383003404E1,1.245330634E0,-2.135205988E1,7.988058473E0,2.283134660E1
1.384009504E1,3.068165030E0,-2.919461683E1,7.023140422E0,3.018383325E1
1.385015604E1,4.892359489E0,-3.809683192E1,5.815400952E0,3.884742812E1
1.386021804E1,6.117799065E0,-4.545003772E1,3.909682859E0,4.602628612E1
1.387027904E1,6.717512891E0,-4.845872955E1,1.866735876E0,4.895771800E1
1.388034004E1,6.918982215E0,-4.294827142E1,7.822522044E-1,4.350905942E1
1.389040021E1,5.709110266E0,-3.050118184E1,2.295058164E0,3.111564439E1
1.390046121E1,2.198157667E0,-2.066478049E1,-2.210352182E0,2.089858145E1
1.391052321E1,1.573365864E0,-1.438171806E1,-9.077223426E0,1.707938171E1
1.392058421E1,3.217224883E0,-4.092028279E0,-1.408300954E1,1.501420625E1
1.393064521E1,1.832413890E0,2.435729016E0,-2.586397262E1,2.604295675E1
1.394070621E1,1.915160470E0,4.934184623E-1,-1.181733978E1,1.198168689E1
1.395076721E1,1.200012666E0,9.927051902E-2,-4.274918075E0,4.441262161E0
1.396082921E1,6.935030922E-1,9.205213130E-1,-1.840811076E0,2.171840566E0
1.397089021E1,7.378970537E-1,2.607346550E0,-8.857202934E-1,2.850832954E0
1.398095121E1,1.040854965E0,4.739039648E0,1.071790536E0,4.968964761E0
1.399101221E1,1.779392800E0,6.905876266E0,4.303054876E0,8.329084404E0
1.400107321E1,2.135053639E0,9.993208469E0,6.850317777E0,1.230241940E1
1.401113421E1,2.556248317E0,1.149702697E1,5.004810802E0,1.279703738E1
1.402119621E1,2.643532921E0,1.306348434E1,4.598196010E0,1.409915941E1
1.403125721E1,2.573621564E0,1.356045557E1,4.026186876E0,1.437774892E1
1.404131821E1,2.641427046E0,1.406466098E1,3.620284860E0,1.476137825E1
1.405137921E1,2.470350380E0,1.485313228E1,3.503700736E0,1.545943364E1
1.406144021E1,2.413849905E0,1.520218065E1,3.233166440E0,1.572851974E1
1.407150221E1,1.952536018E0,1.557433956E1,2.993465681E0,1.597915161E1
1.408156321E1,1.561113024E0,1.592357738E1,2.763211684E0,1.623677090E1
1.409162421E1,1.270621304E0,1.601213696E1,2.267463107E0,1.622172610E1
1.410168521E1,8.184906158E-1,1.526741921E1,1.554251316E0,1.536813955E1
1.411174621E1,2.689601342E-1,1.320499632E1,9.160914624E-1,1.323946717E1
1.412180821E1,-6.718449871E-2,1.097021155E1,5.360901996E-1,1.098350799E1
1.413186921E1,-2.285330882E-1,9.458883471E0,1.645230337E-1,9.463074116E0
1.414193021E1,-5.626571701E-1,8.317558431E0,-6.600350185E-1,8.362655533E0
1.415199121E1,-1.027136373E0,7.550334156E0,-1.753709344E0,7.819082520E0
1.416205221E1,-1.523699030E0,7.282928705E0,-2.836191368E0,7.962831828E0
1.417211421E1,-2.087163189E0,7.296189020E0,-3.942876332E0,8.552011352E0
1.418217521E1,-2.899837140E0,7.392432436E0,-5.284063296E0,9.538261774E0
1.419223621E1,-4.075794362E0,7.538412268E0,-6.701261725E0,1.087872547E1
1.420229721E1,-3.791378191E0,8.435357022E0,-5.800620360E0,1.091682157E1
1.421235821E1,-2.318073535E0,9.597197018E0,-3.389637930E0,1.043883618E1
1.422242021E1,-1.669408428E0,9.912067827E0,-2.106980864E0,1.027012081E1
1.423248121E1,-1.175270027E0,9.566372836E0,-1.532160974E0,9.759316888E0
1.424254221E1,-8.853788891E-1,8.606360598E0,-1.409914552E0,8.765911109E0
1.425260321E1,-6.383865796E-1,5.633319826E0,-1.430003246E0,5.846942703E0
1.426266421E1,6.108608119E-2,-2.459976250E-1,6.589325991E-1,7.060017783E-1
1.427272621E1,9.186963239E-1,-7.669857091E0,4.494930673E0,8.937287759E0
1.428278721E1,2.991879624E0,-1.646755086E1,7.007956957E0,1.814505541E1
1.429284821E1,5.187791229E0,-2.606635411E1,7.941252682E0,2.773862810E1
1.430290921E1,6.498045253E0,-3.574824630E1,8.135945667E0,3.723379268E1
1.431297021E1,6.811351347E0,-4.434134482E1,7.159562395E0,4.542916136E1
1.432303221E1,5.588834209E0,-4.898941349E1,4.931482624E0,4.955317571E1
1.433309321E1,3.060491145E0,-4.638639213E1,2.767352682E0,4.656954178E1
1.434315421E1,2.493554471E0,-3.555095188E1,1.970688407E0,3.569273885E1
1.435321521E1,1.803718971E0,-2.474970850E1,2.273926619E0,2.491931410E1
1.436327621E1,6.530375824E-1,-1.726011756E1,1.607966178E0,1.734715168E1
1.437333821E1,1.342728290E-1,-1.173611844E1,-1.002113360E-1,1.173731433E1
1.438339921E1,-2.762612783E-1,-6.859115497E0,-1.361996035E0,6.998486901E0
1.439346021E1,-6.020771611E-1,-1.330723372E0,-2.301149501E0,2.725547766E0
1.440352121E1,-1.027805076E0,5.089387268E0,-1.083660501E1,1.201624959E1
1.441358221E1,-1.692294868E0,9.500681707E0,-1.679786125E1,1.937253100E1
1.442364421E1,-1.379726839E0,9.508191871E0,-8.219633356E0,1.264403936E1
1.443370521E1,-1.121310021E0,9.819410509E0,-3.683048873E0,1.054718009E1
1.444376621E1,-5.792389966E-1,1.032123844E1,-1.855379414E0,1.050266221E1
1.445382721E1,2.939384573E-2,1.034407298E1,-1.320586054E0,1.042807065E1
1.446388821E1,7.886445267E-1,9.251837658E0,-7.257452971E-1,9.313708524E0
1.447395021E1,8.850956646E-1,9.439868910E0,8.765397263E-1,9.521703696E0
1.448401121E1,1.117252857E0,1.173943265E1,3.216575550E0,1.222329297E1
1.449407221E1,1.633433726E0,1.389420412E1,5.285416342E0,1.495502055E1
1.450413321E1,2.647108493E0,1.433653078E1,5.696649849E0,1.565231988E1
1.451419421E1,3.457844824E0,1.465014035E1,5.417886182E0,1.599802468E1
1.452425621E1,3.682203950E0,1.452943276E1,4.381699927E0,1.561609223E1
1.453431721E1,3.679781156E0,1.434302353E1,3.381007440E0,1.518862484E1
1.454437821E1,3.383240492E0,1.436539732E1,2.780013074E0,1.501797020E1
1.455443921E1,2.635748815E0,1.426121163E1,2.299074908E0,1.468383718E1
1.456450021E1,1.578658179E0,1.378481792E1,1.837830166E0,1.399610611E1
1.457456121E1,4.979465826E-1,1.297434939E1,1.315032368E0,1.305032578E1
1.458462321E1,-1.856120220E-1,1.170974399E1,8.654650998E-1,1.174315060E1
1.459468421E1,-5.243940872E-1,1.035134926E1,5.437097794E-1,1.037887474E1
1.460474521E1,-8.530682717E-1,9.307861000E0,2.217825508E-1,9.349502092E0
1.461480621E1,-1.174283967E0,8.648878042E0,-2.482453678E-1,8.731761563E0
1.462486721E1,-1.402170792E0,8.283190836E0,-7.377795247E-1,8.433365401E0
1.463492921E1,-1.638546824E0,7.988060228E0,-1.142573420E0,8.234040072E0
1.464499021E1,-1.712617159E0,7.686210583E0,-1.473161983E0,8.011310560E0
1.465505121E1,-1.661057142E0,7.203449841E0,-1.852958521E0,7.621171545E0
1.466511221E1,-1.532565309E0,6.777382532E0,-2.113043257E0,7.262686984E0
1.467517321E1,-1.030762963E0,6.573715240E0,-2.271733913E0,7.031143528E0
1.468523521E1,4.511832196E-1,5.950140097E0,-3.392882550E0,6.864356158E0
1.469529621E1,9.979057038E-1,4.698785661E0,-2.450824627E0,5.392675016E0
1.470535721E1,1.318113266E0,2.780850980E0,-1.003082902E0,3.236777728E0
1.471541821E1,2.051860770E0,-2.758767800E0,2.138035865E-1,3.444799613E0
1.472547921E1,2.813978088E0,-9.911863174E0,2.713061285E0,1.065477385E1
1.473554121E1,3.973117839E0,-1.775686075E1,3.944372635E0,1.861853497E1
1.474560221E1,5.170376467E0,-2.695205292E1,4.419298108E0,2.779705281E1
1.475566321E1,6.262650384E0,-3.772603425E1,4.590808053E0,3.851687901E1
1.476572421E1,6.610825179E0,-4.865144910E1,4.330101757E0,4.928910925E1
1.477578521E1,5.972455410E0,-5.561585717E1,3.882909335E0,5.607023076E1
1.478584721E1,4.153687752E0,-5.158159178E1,3.452102566E0,5.186357821E1
1.479590821E1,4.646738133E0,-3.652098391E1,2.094258639E0,3.687492861E1
1.480596921E1,4.407475623E0,-2.496052401E1,3.448401278E-1,2.534901408E1
1.481603021E1,3.095466265E0,-1.650761131E1,-8.194877122E-1,1.681531155E1
1.482609121E1,1.964788420E0,-9.430741991E0,-1.288725160E0,9.719058626E0
1.483615321E1,1.172265143E0,-3.605096133E0,-1.191389485E0,3.973705147E0
1.484621421E1,8.056676719E-1,1.648817750E0,-6.564493597E-1,1.949006448E0
1.485627521E1,6.889771280E-1,6.466238154E0,-5.677891982E-1,6.527580710E0
1.486633621E1,1.238500355E0,9.314963028E0,-6.834184724E-1,9.421755684E0
1.487639721E1,1.584901690E0,1.272973229E1,-1.302209863E0,1.289394230E1
1.488645921E1,1.172204770E0,1.689513669E1,-3.190532636E0,1.723366492E1
1.489652404E1,1.431609038E0,1.896952766E1,-2.849119561E0,1.923564313E1
1.490658504E1,2.282589853E0,1.935591635E1,-2.486750066E0,1.964804418E1
1.491664604E1,2.287407813E0,1.846887737E1,-2.292625430E0,1.875067457E1
1.492670704E1,1.860859132E0,1.799892261E1,-2.064965696E0,1.821230615E1
1.493676904E1,1.440025666E0,1.778875263E1,-1.788334655E0,1.793631888E1
1.494683004E1,7.226665188E-1,1.743991710E1,-1.409309950E0,1.751168495E1
1.495689104E1,1.505707732E-1,1.721609036E1,-1.306786040E0,1.726627142E1
1.496695204E1,-4.866194296E-1,1.667170757E1,-1.320945073E0,1.673103486E1
1.497701304E1,-1.197005005E0,1.516974732E1,-1.239190473E0,1.526727375E1
1.498707504E1,-1.433836534E0,1.299462052E1,-1.205187160E0,1.312891944E1
1.499713604E1,-1.433373581E0,1.101663259E1,-1.146181299E0,1.116845939E1
1.500719704E1,-1.502002351E0,9.549284348E0,-9.692666262E-1,9.715159310E0
1.501725804E1,-1.677341930E0,8.446720501E0,-6.827929665E-1,8.638678684E0
1.502731904E1,-1.905462863E0,7.817236746E0,-5.107174498E-1,8.062308068E0
1.503738104E1,-2.166263883E0,7.722453965E0,-4.744554303E-1,8.034556765E0
1.504744204E1,-2.427803992E0,7.749654627E0,-6.217660884E-1,8.144812591E0
1.505750304E1,-2.738340260E0,7.324974278E0,-7.742076782E-1,7.858317446E0
1.506756404E1,-3.132737002E0,6.451186836E0,-8.696230549E-1,7.224132957E0
1.507762504E1,-3.363048010E0,5.536781711E0,-8.711135101E-1,6.536427340E0
1.508768704E1,-3.580711489E0,4.950342818E0,-6.673503238E-1,6.145953567E0
1.509774804E1,-3.903848507E0,4.935962176E0,-5.320545244E-1,6.315602726E0
1.510780904E1,-4.276025537E0,5.870300460E0,-4.844693718E-1,7.278704037E0
1.511787004E1,-4.458242319E0,7.617707528E0,-5.200023897E-1,8.841707700E0
1.512793104E1,-4.536036599E0,8.212272881E0,-3.587177633E-1,9.388595866E0
1.513799304E1,-4.363669160E0,6.061378697E0,-1.136483399E0,7.554701500E0
1.514805404E1,-3.703925479E0,3.343234427E0,-2.305730648E0,5.496605699E0
1.515811504E1,-3.219465244E0,-2.706296057E-1,-2.014222535E0,3.807267952E0
1.516817604E1,-2.630950882E0,-4.928387693E0,7.030517415E-1,5.630736146E0
1.517823704E1,-2.354621118E-1,-1.106733848E1,6.091726915E0,1.263529027E1
1.518829904E1,4.062044926E0,-1.809338321E1,1.028297543E1,2.120401633E1
1.519836004E1,8.680799162E0,-2.573246407E1,1.232873960E1,2.982471795E1
1.520842104E1,1.153742187E1,-3.393063697E1,1.126524100E1,3.756735130E1
1.521848204E1,1.314554768E1,-4.091175170E1,7.758596774E0,4.366660824E1
1.522854304E1,1.358845672E1,-4.457679115E1,3.749521190E0,4.675249057E1
1.523860504E1,1.241235829E1,-4.202217537E1,6.209339565E-1,4.382140368E1
1.524866604E1,1.024319682E1,-3.125473591E1,-1.484716520E0,3.292394237E1
1.525872704E1,7.197496206E0,-2.171609116E1,-2.423846012E0,2.300581657E1
1.526878804E1,2.231077199E0,-1.390125235E1,-4.777709039E0,1.486771758E1
1.527884904E1,-6.704356071E-1,-8.057381308E0,-5.793293799E0,9.946513484E0
1.528891104E1,6.793833089E-1,-3.248927609E0,-1.424343287E0,3.611903389E0
1.529897204E1,-2.270152241E-2,2.042859274E0,-3.013584488E0,3.640807718E0
1.530903304E1,-2.954234957E0,4.275743117E0,-7.370107766E0,9.018202253E0
1.531909404E1,-3.692268470E0,6.271257486E0,-6.187643471E0,9.552405385E0
1.532915504E1,-2.846268167E0,6.883982536E0,-3.500496461E0,8.230670295E0
1.533921704E1,-1.981877493E0,7.165395577E0,-2.037981965E0,7.708703047E0
1.534927804E1,-1.470327692E0,7.440651500E0,-1.405339544E0,7.713633223E0
1.535933904E1,-1.225360273E0,8.281016257E0,-4.813112175E-1,8.385010348E0
1.536940004E1,-1.421861875E0,9.796135667E0,3.485817611E-1,9.904921728E0
1.537946104E1,-1.623463931E0,1.126507962E1,7.788906401E-1,1.140808154E1
1.538952304E1,-1.599393868E0,1.198607405E1,7.039853957E-1,1.211278776E1
1.539958404E1,-1.356295146E0,1.267669922E1,6.345081946E-1,1.276482825E1
1.540964504E1,-9.877381998E-1,1.360544756E1,5.092193200E-1,1.365075582E1
1.541970604E1,-7.141084608E-1,1.408841822E1,4.012990149E-1,1.411221172E1
1.542976704E1,-4.616807259E-1,1.454135056E1,1.623934778E-1,1.454958408E1
1.543982904E1,-1.753427947E-1,1.506938337E1,-4.623810031E-2,1.507047438E1
1.544989004E1,5.472962056E-1,1.530286503E1,-2.299382472E-1,1.531437504E1
1.545995104E1,1.423719097E0,1.517932155E1,-4.559799830E-1,1.525276029E1
1.547001204E1,2.358445051E0,1.432443172E1,-6.130758834E-1,1.453022606E1
1.548007304E1,2.908464122E0,1.249351647E1,-8.420277784E-1,1.285519849E1
1.549013504E1,2.811163823E0,1.032278795E1,-1.044474245E0,1.074958230E1
1.550019604E1,2.500536631E0,8.714234126E0,-1.441313661E0,9.179757345E0
1.551025704E1,1.819310279E0,7.597515923E0,-1.963827284E0,8.055355715E0
1.552031804E1,9.108098187E-1,6.846794829E0,-2.458786342E0,7.331698591E0
1.553037904E1,-4.538192175E-2,6.604339448E0,-2.738228286E0,7.149633082E0
1.554044104E1,-7.878535447E-1,6.655135964E0,-2.743570302E0,7.241458825E0
1.555050204E1,-1.317791523E0,6.935991181E0,-2.468265263E0,7.479096307E0
1.556056304E1,-1.722168439E0,7.506589381E0,-2.051851122E0,7.970247255E0
1.557062404E1,-2.092814523E0,8.090281252E0,-1.700875511E0,8.527924769E0
1.558068504E1,-2.313148864E0,8.377036309E0,-1.299399253E0,8.787140229E0
1.559074704E1,-2.236702074E0,8.089507665E0,-6.664521915E-1,8.419449445E0
1.560080804E1,-1.799517308E0,7.045289090E0,2.237302583E-1,7.274916916E0
1.561086904E1,-1.165700035E0,4.944576879E0,9.173562151E-1,5.162290142E0
1.562093004E1,-1.535522392E0,1.903415460E0,2.062474928E0,3.199159618E0
1.563099104E1,-3.080661115E0,-2.633677146E0,4.990156510E0,6.428716062E0
1.564105304E1,-4.039257450E0,-8.359600496E0,8.387137958E0,1.251169870E1
1.565111404E1,-3.944707680E0,-1.498269606E1,1.067802150E1,1.881653643E1
1.566117504E1,-3.250129797E0,-2.142343100E1,1.063907203E1,2.413952346E1
1.567123604E1,-2.460885784E0,-2.662605895E1,8.067432087E0,2.793002747E1
1.568129704E1,-1.348019874E0,-3.136712173E1,5.027999690E0,3.179613600E1
1.569135904E1,3.952362563E-1,-3.544286259E1,3.072156340E0,3.557795476E1
1.570142004E1,3.038263539E0,-3.811555470E1,1.972097440E0,3.828727888E1
1.571148104E1,7.325617472E0,-3.622217716E1,1.601402094E0,3.699020516E1
1.572154204E1,9.928109078E0,-2.896734491E1,1.640005996E0,3.066535571E1
1.573160304E1,7.620152249E0,-2.049914057E1,3.418519667E0,2.213521541E1
1.574166504E1,5.420036788E0,-1.398320693E1,2.852375291E0,1.526574333E1
1.575172604E1,4.978826945E0,-1.042059900E1,-2.668331547E-1,1.155200421E1
1.576178704E1,4.478805514E0,-6.924963332E0,-2.232800812E0,8.544016353E0
1.577184804E1,3.738184023E0,-3.458987662E0,-2.739317330E0,5.782946902E0
1.578190904E1,3.154402106E0,-4.902106798E-1,-2.663711370E0,4.157633632E0
1.579197104E1,2.179235347E0,3.565154387E0,-2.960402600E0,5.120876493E0
1.580203204E1,1.503168871E0,7.663080168E0,-6.272356762E0,1.001622552E1
1.581209304E1,8.847737753E-1,8.345029235E0,-7.830856665E0,1.147800739E1
1.582215404E1,9.949432120E-1,7.727333466E0,-6.684271470E0,1.026552870E1
1.583221504E1,1.255314755E0,7.473154417E0,-5.132836173E0,9.152587572E0
1.584227704E1,1.012192644E0,7.557087690E0,-3.490850894E0,8.385710958E0
1.585233804E1,5.470908953E-1,7.712546443E0,-2.344221261E0,8.079483548E0
1.586239904E1,4.572745565E-2,8.132221575E0,-1.685793203E0,8.305240362E0
1.587246004E1,8.737856146E-2,8.595902268E0,-1.328466931E0,8.698390380E0
1.588252104E1,5.847738978E-1,9.223728923E0,-6.137642469E-1,9.262604510E0
1.589257933E1,1.466204528E0,1.031553155E1,4.676614773E-1,1.042970058E1
1.590264033E1,2.152216386E0,1.256827196E1,1.616876604E0,1.285331807E1
1.591270133E1,2.951629438E0,1.454287902E1,2.396854972E0,1.503171182E1
1.592276233E1,4.596787416E0,1.503188167E1,2.435351871E0,1.590656656E1
1.593282333E1,5.004104458E0,1.645677562E1,2.410603530E0,1.736886682E1
1.594288533E1,4.896219236E0,1.693047025E1,1.659010617E0,1.770214964E1
1.595294633E1,4.295415781E0,1.754198960E1,1.162681995E0,1.809761933E1
1.596300733E1,2.969713999E0,1.706917790E1,2.413543510E-1,1.732727005E1
1.597306833E1,1.453565186E0,1.509993156E1,-7.488417989E-1,1.518820427E1
1.598312933E1,4.243146790E-1,1.218370994E1,-1.352241856E0,1.226586274E1
1.599319133E1,-2.701341272E-1,9.923356462E0,-1.766282027E0,1.008294243E1
1.600325233E1,-9.226508689E-1,8.254085151E0,-2.147824396E0,8.578715285E0
1.601331333E1,-1.436389136E0,7.055636322E0,-2.663599103E0,7.677237644E0
1.602337433E1,-2.030382632E0,5.848382172E0,-3.092281579E0,6.920132443E0
1.603343533E1,-2.630631039E0,4.605376976E0,-3.210233952E0,6.199622471E0
1.604349733E1,-3.167091733E0,4.073566865E0,-2.972616557E0,5.954902706E0
1.605355833E1,-3.509471353E0,3.956482219E0,-2.747389119E0,5.959722115E0
1.606361933E1,-3.859226650E0,4.167801762E0,-2.494755489E0,6.203870309E0
1.607368033E1,-4.221354363E0,4.485032507E0,-2.080271514E0,6.500990603E0
1.608374133E1,-4.159446090E0,4.117642592E0,-1.428758812E0,6.024726055E0
1.609380333E1,-3.826820796E0,2.293995432E0,-4.533743906E-1,4.484698517E0
1.610386433E1,-3.663082970E0,-1.077610270E0,2.310386201E-1,3.825284249E0
1.611392533E1,-3.535020761E0,-6.122855152E0,1.632451394E0,7.256075010E0
1.612398633E1,-2.831833730E0,-1.228619993E1,3.531456884E0,1.309355486E1
1.613404733E1,-1.548724674E0,-1.971136158E1,5.345253823E0,2.048189595E1
1.614410933E1,6.762842846E-1,-2.787428045E1,7.118737135E0,2.877688811E1
1.615417033E1,3.690858707E0,-3.657918710E1,9.081651523E0,3.786998496E1
1.616423133E1,6.723634926E0,-4.366338590E1,9.772239851E0,4.524594132E1
1.617429233E1,8.665129209E0,-4.649108535E1,7.337025974E0,4.785746997E1
1.618435333E1,8.406976392E0,-4.277890799E1,4.510424625E0,4.382985457E1
1.619441533E1,7.276121376E0,-3.272958613E1,2.298818800E0,3.360732537E1
1.620447633E1,4.438400377E0,-2.295450336E1,1.127634808E0,2.340684051E1
1.621453733E1,1.868941154E-1,-1.374515391E1,2.061435147E0,1.390013311E1
1.622459833E1,-4.394197181E-1,-9.178366224E0,-3.709175402E-1,9.196362109E0
1.623465933E1,8.283604234E-3,-5.998761449E0,-2.391699190E0,6.457974338E0
1.624472133E1,-5.183331558E-1,-1.988673127E0,-3.047300996E0,3.675531720E0
1.625478233E1,-9.448887071E-1,1.456846059E0,-3.291225783E0,3.721207097E0
1.626484333E1,-8.054120754E-1,5.855968350E0,-3.258990083E0,6.749968169E0
1.627490433E1,-3.596533909E-1,1.257942611E1,-1.517891107E1,1.971726789E1
1.628496533E1,-7.211308207E-1,1.315106160E1,-1.692441721E1,2.144542723E1
1.629502733E1,-4.269219524E-1,1.089012925E1,-7.276874498E0,1.310458240E1
1.630508833E1,-1.073434042E0,1.128171845E1,-3.737342609E0,1.193302818E1
1.631514933E1,-1.243231922E0,1.148443791E1,-1.336012909E0,1.162853689E1
1.632521033E1,-1.281423011E0,1.281487828E1,-4.768755198E-2,1.287887512E1
1.633527133E1,-1.481808700E0,1.423880510E1,5.998202455E-1,1.432826270E1
1.634533333E1,-1.442203900E0,1.447575299E1,6.330985770E-1,1.456118781E1
1.635539433E1,-1.361612750E0,1.444873534E1,5.002655518E-1,1.452137073E1
1.636545533E1,-1.151594359E0,1.449732921E1,5.178750996E-1,1.455221352E1
1.637551633E1,-7.657547240E-1,1.463193095E1,7.925438887E-1,1.467337416E1
1.638557733E1,-1.434252198E-1,1.453365679E1,1.035906758E0,1.457123376E1
1.639563933E1,7.426638501E-1,1.434764283E1,1.520310568E0,1.444706713E1
1.640570033E1,2.247097693E0,1.399304078E1,2.562085007E0,1.440204561E1
1.641576133E1,3.399086154E0,1.306186350E1,3.606585419E0,1.397045178E1
1.642582233E1,3.463301153E0,1.176490780E1,3.765333230E0,1.282907809E1
1.643588333E1,2.782318923E0,1.058366148E1,3.541582507E0,1.150208657E1
1.644594533E1,1.917892874E0,9.580753478E0,2.966245723E0,1.021115880E1
1.645600633E1,1.011803658E0,8.862575648E0,2.195728880E0,9.186414919E0
1.646606733E1,2.831280291E-1,8.353269131E0,1.462911960E0,8.485126874E0
1.647612833E1,-3.668730211E-1,7.964329888E0,8.390631670E-1,8.016805684E0
1.648618933E1,-8.540328430E-1,7.365417715E0,4.266900373E-1,7.427032691E0
1.649625133E1,-1.072691665E0,6.761565229E0,1.920307664E-1,6.848817969E0
1.650631233E1,-1.112910203E0,6.235102982E0,1.382556599E-1,6.335155321E0
1.651637333E1,-9.746767625E-1,6.147061456E0,2.828087711E-1,6.230276088E0
1.652643433E1,-7.521968582E-1,6.706152336E0,3.225873792E-1,6.755911625E0
1.653649533E1,-6.015840581E-1,7.147366857E0,2.707108637E-1,7.177746216E0
1.654655733E1,-4.757778512E-1,6.609960376E0,3.742018847E-1,6.637617629E0
1.655661833E1,-9.018116847E-2,5.123195284E0,7.943623728E-1,5.185197599E0
1.656667933E1,6.063293660E-1,2.002483081E0,1.572926154E0,2.617569574E0
1.657674033E1,1.529944733E0,-3.900163592E0,3.492662947E0,5.454420353E0
1.658680133E1,2.459446200E0,-1.106039315E1,5.649575086E0,1.266091904E1
1.659686333E1,3.423282517E0,-1.832371088E1,5.217769319E0,1.935723018E1
1.660692433E1,4.350827798E0,-2.551672520E1,5.191896560E0,2.640054464E1
1.661698533E1,5.375441244E0,-3.293288914E1,5.090126941E0,3.375470261E1
1.662704633E1,6.355839214E0,-3.999367803E1,4.731264605E0,4.077101715E1
1.663710733E1,6.676923859E0,-4.452204250E1,4.007803230E0,4.519796530E1
1.664716933E1,5.795248523E0,-4.327012556E1,3.058204299E0,4.376346976E1
1.665723033E1,4.435213645E0,-3.382540814E1,2.694316281E0,3.422117321E1
1.666729133E1,2.388079325E0,-2.440307854E1,1.930645943E0,2.459553941E1
1.667735233E1,5.377837725E-1,-1.753790591E1,4.790750961E-1,1.755268834E1
1.668741333E1,-7.687894289E-1,-1.166922045E1,-6.590478623E-1,1.171307334E1
1.669747533E1,-1.549309542E0,-6.353793274E0,-9.829777622E-1,6.613417747E0
1.670753633E1,-1.820603245E0,-1.668803533E0,-1.408841734E0,2.843296756E0
1.671759733E1,-2.240892189E0,2.376428894E0,-4.741009575E0,5.757272260E0
1.672765833E1,-3.541740382E0,8.207990965E0,-1.363130746E1,1.630115283E1
1.673771933E1,-2.801956212E0,9.911629286E0,-1.028257548E1,1.455413042E1
