"Time (s)","Linear Acceleration x (m/s^2)","Linear Acceleration y (m/s^2)","Linear Acceleration z (m/s^2)","Absolute acceleration (m/s^2)"
6.053625024E-3,1.121159747E-2,-7.462772101E-2,-1.505872039E0,1.507761783E0
1.611462503E-2,3.224140093E-2,8.624643087E-3,-1.358989397E0,1.359399159E0
2.617462503E-2,-8.309229657E-2,-4.880378544E-3,-8.090792298E-1,8.133494624E-1
3.623562504E-2,1.699186251E-2,-1.248801541E-1,-9.420916915E-2,1.573503856E-1
4.629662505E-2,3.836415931E-1,-1.676855734E-1,3.640458924E-1,5.548231567E-1
5.635662505E-2,9.877793495E-1,-5.374877572E-2,8.293392473E-1,1.290891383E0
6.641762506E-2,1.678201763E0,4.456806242E-2,1.231045886E0,2.081783236E0
7.647862507E-2,2.136619377E0,3.692282796E-2,1.146575840E0,2.425106557E0
8.653862507E-2,2.284671755E0,1.258648252E-1,4.874858773E-1,2.339489145E0
9.659962507E-2,2.092386506E0,4.329725781E-1,-5.248799908E-1,2.200237612E0
1.066606251E-1,2.059714166E0,5.110121495E-1,-2.042586209E0,2.945456549E0
1.167206251E-1,1.273294358E0,2.564112237E-1,-3.622600942E0,3.848410428E0
1.267816251E-1,-3.744362758E-2,9.340748665E-1,-3.445613326E0,3.570174936E0
1.368426250E-1,9.139344245E-1,9.227032015E-1,-3.152904049E0,3.409906344E0
1.469026250E-1,1.944008585E0,-1.477603090E-1,-2.137515171E0,2.893090664E0
1.569636250E-1,2.205431311E0,-9.408333707E-1,-1.650654945E0,2.910971736E0
1.670246250E-1,1.829936132E0,-1.121590102E0,-1.912050628E0,2.874468335E0
1.770846250E-1,1.425825703E0,-8.465394169E-1,-2.491224355E0,2.992625387E0
1.871456250E-1,1.411959031E0,-3.306518590E-1,-3.182094519E0,3.496953601E0
1.972066250E-1,1.520313930E0,-4.296124756E-2,-3.407161451E0,3.731212842E0
2.072666250E-1,2.189227215E0,-3.059619910E-1,-3.551191236E0,4.182975943E0
2.173276250E-1,2.849938172E0,-9.200649378E-1,-4.221219585E0,5.175650863E0
2.273886250E-1,2.787410386E0,-1.382608055E0,-4.728592427E0,5.660463589E0
2.374486250E-1,2.160439910E0,-1.492640082E0,-5.222866337E0,5.845836792E0
2.475096250E-1,1.467192853E0,-1.597587078E0,-6.029824197E0,6.408097939E0
2.575706250E-1,7.453954500E-1,-2.262520163E0,-7.104069979E0,7.492824710E0
2.676306251E-1,-2.466832110E-1,-3.053875605E0,-7.537979574E0,8.136838752E0
2.776916251E-1,-1.047938282E0,-3.840715827E0,-6.550766673E0,7.665625657E0
2.877526251E-1,-6.811178854E-1,-4.708987590E0,-6.134705704E0,7.763575193E0
2.978126251E-1,1.150915935E0,-5.562041098E0,-5.710188493E0,8.054015228E0
3.078736251E-1,2.289397767E0,-5.563508749E0,-4.178940123E0,7.325128824E0
3.179346251E-1,2.869374316E0,-4.742992365E0,-2.131856235E0,5.939199993E0
3.279946251E-1,3.893019463E0,-3.786676737E0,3.091177332E-1,5.439676004E0
3.380556250E-1,4.423897528E0,-3.149309766E0,3.603774662E0,6.517377782E0
3.481166250E-1,4.680455809E0,-3.375185952E0,6.169627030E0,8.447653194E0
3.581766250E-1,4.015288251E0,-4.154893741E0,4.423864199E0,7.277104932E0
3.682376250E-1,1.969130563E0,-4.305848968E0,2.576517105E0,5.390385042E0
3.782986250E-1,8.086424428E-1,-4.909916924E0,1.867643949E0,5.315005241E0
3.883586250E-1,1.950572670E-2,-6.107995623E0,2.200795493E0,6.492418025E0
3.984196250E-1,-1.197557713E0,-7.489841201E0,2.398615569E0,7.955200962E0
4.084806250E-1,-1.188604456E0,-8.059366438E0,2.413936443E0,8.496661526E0
4.185410833E-1,-8.942053342E-1,-6.653102887E0,2.354372612E0,7.113821167E0
4.286020834E-1,-1.089920413E0,-5.749716840E0,2.006564145E0,6.186555577E0
4.386630834E-1,-1.392106272E0,-5.974483809E0,1.584099013E0,6.335754600E0
4.487230834E-1,-1.011201103E0,-6.299301901E0,2.146481583E0,6.731353155E0
4.587840834E-1,-7.461748838E-2,-6.184067899E0,3.454254633E0,7.083794084E0
4.688450834E-1,8.716549623E-1,-5.857507337E0,4.942600520E0,7.713590246E0
4.789050834E-1,1.233940843E0,-5.508995742E0,5.643193434E0,7.982310206E0
4.889660834E-1,8.064134842E-1,-5.214824662E0,5.193157804E0,7.403619854E0
4.990270834E-1,7.307674706E-1,-4.666335953E0,4.763417859E0,6.708119112E0
5.090870834E-1,1.703474014E0,-4.020779079E0,4.992382545E0,6.632674543E0
5.191480834E-1,3.326745864E0,-3.429875545E0,6.301664761E0,7.908366649E0
5.292090834E-1,4.271360044E0,-2.859225012E0,7.672455593E0,9.235055989E0
5.392690834E-1,5.220183635E0,-2.318493658E0,8.863915830E0,1.054489136E1
5.493300834E-1,6.669913632E0,-2.129139327E-1,8.838881561E0,1.107514819E1
5.593910833E-1,7.489424295E0,2.372810344E0,7.969995255E0,1.119118088E1
5.694510833E-1,7.317065334E0,3.896959317E0,5.812528800E0,1.012478287E1
5.795120833E-1,6.092682350E0,4.936947432E0,1.237149941E0,7.938814026E0
5.895730833E-1,3.921754435E0,5.048977745E0,1.511230427E-1,6.394933330E0
5.996330833E-1,3.890947795E0,2.915736889E0,3.690493548E0,6.104157516E0
6.096940833E-1,6.142961388E0,2.768863603E0,5.902925584E0,8.958075168E0
6.197550833E-1,6.279614911E0,3.637963040E0,5.739520465E0,9.252590647E0
6.298150833E-1,6.709901571E0,3.970099214E0,5.518154236E0,9.551674881E0
6.398760834E-1,6.950294639E0,4.370634656E0,5.627518219E0,9.953793456E0
6.499370834E-1,6.932139035E0,4.428223006E0,5.810919646E0,1.007127091E1
6.599970834E-1,6.805121723E0,5.091823218E0,5.750934230E0,1.026204609E1
6.700580834E-1,6.208781741E0,5.351675236E0,4.453444093E0,9.328588469E0
6.801190834E-1,5.770617712E0,5.041913724E0,3.216186710E0,8.310522230E0
6.901790834E-1,5.641821678E0,4.320113543E0,3.378499569E0,7.868150495E0
7.002400834E-1,5.897639701E0,2.966152167E0,4.921596737E0,8.234216852E0
7.103010834E-1,5.777241438E0,2.336331612E0,1.310408098E0,6.368055702E0
7.203610834E-1,5.847689277E0,3.058041746E0,4.569414845E-1,6.614823106E0
7.304220834E-1,5.698426818E0,4.618427376E0,-7.927464362E0,1.080030698E1
7.404830834E-1,6.585632451E0,6.772174417E0,-1.607176102E1,1.864227463E1
7.505430834E-1,8.447436785E0,8.599638639E0,-9.650790843E0,1.544185018E1
7.606040834E-1,8.558941433E0,9.431926637E0,-3.950890234E0,1.333515100E1
7.706650833E-1,5.918114312E0,4.772015605E0,-2.309947806E0,7.945569130E0
7.807250833E-1,-8.075864357E-1,-2.142420400E0,-3.660259642E0,4.317367447E0
7.907860833E-1,9.125381094E-1,-3.426323361E0,-3.724339571E0,5.142287703E0
8.008470833E-1,1.854456139E0,9.869953841E-1,-2.898028012E0,3.579348239E0
8.109070833E-1,3.614953954E0,2.042863367E0,1.413747987E0,4.386327187E0
8.209680833E-1,3.723081835E0,-4.371963143E-2,4.317421778E0,5.701173613E0
8.310290833E-1,2.150660296E0,-2.359186624E0,4.422894438E0,5.454639901E0
8.410890833E-1,6.430001789E-1,-2.052548110E-2,4.248138704E0,4.296574563E0
8.511500834E-1,2.491037244E0,1.886966658E-1,3.379673983E0,4.202745437E0
8.612110834E-1,2.555917364E0,-9.371566415E-1,2.572227588E0,3.745307852E0
8.712710834E-1,4.916745302E-1,1.184499711E-1,-2.024387920E-1,5.447528832E-1
8.813320834E-1,5.163190824E-1,1.593318903E0,-2.016995870E0,2.621740426E0
8.913930834E-1,8.474504131E-1,1.791082846E0,-1.163338053E0,2.297717430E0
9.014530834E-1,5.800347295E-1,1.603080829E0,-8.304917336E-2,1.706811530E0
9.115140834E-1,1.836477997E0,1.492739192E0,8.624324414E-1,2.518871066E0
9.215750834E-1,9.674732852E-1,1.826488906E0,2.090295981E0,2.939626433E0
9.316350834E-1,1.378846249E0,2.082891651E0,5.572256184E-1,2.559327060E0
9.416960834E-1,8.954478675E-1,2.027352458E0,2.651694757E-1,2.232106566E0
9.517570834E-1,6.247147661E-1,2.704619660E0,1.713437669E0,3.262070614E0
9.618170834E-1,-2.082123327E-1,3.133395399E0,7.155062377E-2,3.141120595E0
9.718780834E-1,1.178830835E-1,3.813596733E0,-1.013434154E0,3.947716460E0
9.819390833E-1,2.151422481E0,4.839870788E0,-3.245274854E-1,5.306438168E0
9.919990833E-1,2.995539981E0,4.568436021E0,2.433171152E0,5.980316824E0
1.002060083E0,1.265523993E0,3.747999744E0,9.179871297E-1,4.061003993E0
1.012121083E0,8.396183601E-1,3.914181122E0,8.106550545E-1,4.084474808E0
1.022181083E0,2.313264054E0,2.959489850E0,9.460534725E-1,3.873601416E0
1.032242083E0,1.763118537E0,3.155078044E0,-8.740751249E-1,3.718482454E0
1.042303083E0,2.096316859E0,3.032167817E0,-8.520112413E-1,3.783452021E0
1.052363083E0,2.501436225E0,3.445654841E0,-6.963320482E-1,4.314463906E0
1.062424083E0,2.815838672E0,3.465537128E0,-1.150080076E0,4.611027998E0
1.072485083E0,2.784925320E0,3.106998144E0,-4.836331469E-1,4.200374688E0
1.082546083E0,2.736779054E0,2.608860394E0,-4.643797275E-1,3.809430492E0
1.092606083E0,2.520035341E0,1.467532430E0,1.926868057E-1,2.922560138E0
1.102667083E0,2.576704216E0,8.045651793E-1,5.135299605E-1,2.747806901E0
1.112728083E0,2.348207454E0,-2.036175907E-2,1.277349402E0,2.673221716E0
1.122788083E0,2.851193861E0,-5.419509369E-1,1.564754670E0,3.297191900E0
1.132849083E0,3.362941883E0,-5.235286993E-1,3.528085671E0,4.902126978E0
1.142910083E0,3.276778775E0,-1.385076749E-1,2.437469732E0,4.086284646E0
1.152970083E0,2.197310552E0,-1.365132481E0,-2.042020199E0,3.295695199E0
1.163031083E0,1.780295902E-1,-7.040626520E-1,-1.059572194E0,1.284559064E0
1.173092083E0,-3.664283404E-1,-1.020008179E0,-1.071671838E0,1.524193866E0
1.183152083E0,-5.765769786E-1,-2.208671692E0,-1.534576605E0,2.750563035E0
1.193213083E0,-4.539223917E0,-2.387926274E0,4.238923492E0,6.653962581E0
1.203274083E0,-3.293187231E0,-4.599264881E0,7.060684808E0,9.047186831E0
1.213334083E0,-1.067356592E0,-2.463113866E0,3.944001921E0,4.770883688E0
1.223395083E0,-1.118698947E0,2.399359919E0,-1.372718367E0,2.982074961E0
1.233456083E0,2.223123085E-1,3.880765454E0,-4.520860443E0,5.962209525E0
1.243516083E0,2.139352950E-1,4.764622970E0,-5.482701398E0,7.266871058E0
1.253577083E0,-1.618092678E0,3.944662072E0,-4.948338393E0,6.531817177E0
1.263638083E0,-3.445096140E0,4.585614556E-1,-1.528826745E0,3.796877301E0
1.273698083E0,-3.810079048E0,-7.838865012E-1,1.025373584E-1,3.891233006E0
1.283759083E0,-3.998445054E0,6.474598503E-1,-1.206419168E0,4.226371294E0
1.293820083E0,-3.063842184E0,2.013352470E0,-1.810854913E0,4.088998974E0
1.303880083E0,-2.618654480E0,2.669791889E0,-2.417270526E0,4.452902066E0
1.313941083E0,-2.368016212E0,2.940182344E0,-5.008754164E-1,3.808286909E0
1.324002083E0,-1.954120175E0,1.754451794E0,1.397881275E0,2.975022490E0
1.334062083E0,-1.929085029E0,-6.271916467E-1,2.968251902E0,3.595171452E0
1.344123083E0,-2.792106577E0,-2.236548293E0,3.918281774E0,5.305745891E0
1.354184083E0,-1.576735907E0,-3.429541669E0,1.713830602E0,4.145487608E0
1.364244083E0,-4.060885423E-1,-2.727075891E0,-2.180064189E-1,2.765750824E0
1.374305083E0,5.579661682E-1,-1.111926994E0,-7.241405287E-1,1.439474692E0
1.384366083E0,1.219176623E0,9.252166271E-2,-1.530722413E0,1.959097497E0
1.394426083E0,1.608779526E0,8.282680374E-1,-1.744649522E0,2.513563498E0
1.404487083E0,2.040449052E0,1.495052935E0,-1.138233032E0,2.773840307E0
1.414548750E0,7.594053787E-1,1.613359650E0,2.803430003E-1,1.805053486E0
1.424608750E0,1.622216427E-1,4.081643039E-1,1.463660989E0,1.528141829E0
1.434669750E0,2.551415008E-1,-1.022887933E0,1.911251606E0,2.182722981E0
1.444730750E0,2.853017315E-1,-1.359278834E0,1.936402819E0,2.383000610E0
1.454790750E0,-6.377292064E-1,-2.772357899E-1,3.171486793E0,3.246827175E0
1.464851750E0,4.545947045E-1,2.433798265E-1,1.442284445E0,1.531690082E0
1.474912750E0,1.258994992E0,2.154175057E0,7.415541217E-1,2.602967746E0
1.484972750E0,1.439094497E0,2.259926630E0,-6.441286916E-1,2.755569472E0
1.495033750E0,5.794801211E-1,8.575801295E-1,-1.079624928E0,1.495603849E0
1.505094750E0,1.645906422E0,1.555559923E0,9.137973073E-1,2.442089298E0
1.515154750E0,1.335654913E0,1.874645405E0,8.342897925E-1,2.448327776E0
1.525215750E0,-4.733274293E-1,2.832771331E-1,1.670362401E-1,5.763557018E-1
1.535276750E0,-5.146017551E-2,-1.589238131E-1,2.242629397E-1,2.796404730E-1
1.545336750E0,-1.330250916E0,7.803167760E-2,4.211699733E-1,1.397512286E0
1.555397750E0,-3.876990491E0,-7.917328799E-1,1.445053979E0,4.212609313E0
1.565458750E0,-6.624771958E0,-3.272059194E0,1.855185579E0,7.618115804E0
1.575519750E0,-7.642431310E0,-4.600633129E0,2.124776427E0,9.169910381E0
1.585579750E0,-7.205557178E0,-4.607643941E0,1.255831649E0,8.644509822E0
1.595640750E0,-6.300101216E0,-4.095196300E0,-5.270209488E-1,7.532573209E0
1.605701750E0,-3.221967267E0,-2.358089102E0,-1.504490634E0,4.266749272E0
1.615761750E0,-1.299262428E0,-3.560083097E-1,-1.360546510E0,1.914657040E0
1.625822750E0,-9.660740465E-1,-1.777547711E-1,-1.205445607E0,1.554990332E0
1.635882750E0,-2.031606892E0,-4.437153751E-1,-2.981954268E-1,2.100769005E0
1.645943750E0,-1.144020022E0,-1.037932819E0,6.309324029E-1,1.668580847E0
1.656004750E0,1.445437557E-1,-1.527813131E0,4.350872236E-1,1.595119667E0
1.666065750E0,7.616267359E-1,-9.391745156E-1,4.148359770E-1,1.278363385E0
1.676125750E0,1.575707382E0,-3.975206172E-1,4.427649102E-1,1.684315042E0
1.686186750E0,3.040452737E-1,-7.505743289E-1,5.030292383E-1,9.533329776E-1
1.696247750E0,-1.477790785E0,-9.060278195E-1,7.281178048E-1,1.880134983E0
1.706307750E0,-2.978842672E0,-6.432328981E-1,1.570183809E0,3.428225404E0
1.716368750E0,-4.362894697E0,1.242556715E-1,2.254980763E0,4.912761733E0
1.726429750E0,-4.247776469E0,1.114892117E0,2.465162438E0,5.036230258E0
1.736489750E0,-1.294956246E0,1.014700077E0,1.800582525E0,2.438980392E0
1.746550750E0,1.584611522E0,1.601299767E0,1.487358584E0,2.699516656E0
1.756611750E0,2.768383839E0,2.914787886E0,7.012162274E-1,4.080642314E0
1.766671750E0,3.028893376E0,3.408442576E0,5.121438780E-1,4.588460224E0
1.776732750E0,2.444024753E0,3.357392290E0,9.203798103E-1,4.253520775E0
1.786793750E0,9.071691960E-1,4.097404794E0,1.772811466E0,4.555715365E0
1.796853750E0,1.445123269E0,4.001186521E0,2.332893157E0,4.851831131E0
1.806914750E0,2.646399518E0,2.596461373E0,8.943977076E-1,3.813789366E0
1.816975750E0,2.360518912E0,1.231524189E0,3.632831231E-1,2.687131554E0
1.827035750E0,1.296126566E0,1.095699216E0,7.070564264E-1,1.838594473E0
1.837096750E0,5.907462439E-1,2.081429263E0,7.628849106E-1,2.294193167E0
1.847157750E0,1.283314147E0,1.723660356E0,5.629702154E-1,2.221449006E0
1.857217750E0,1.347097329E0,9.460958648E-1,9.005747062E-1,1.876380399E0
1.867278750E0,9.857923195E-1,2.206785965E-1,4.372790524E-1,1.100771779E0
1.877339750E0,9.571248829E-1,5.569677562E-1,8.094014114E-1,1.371652933E0
1.887399750E0,8.758912700E-1,1.191030466E0,1.576632704E0,2.161367569E0
1.897460750E0,7.739415568E-1,1.451614555E0,3.067427112E0,3.480700998E0
1.907521750E0,8.288960284E-1,1.578350616E0,4.441208795E0,4.785665560E0
1.917581750E0,1.147387433E-1,6.693775535E-2,4.430698425E0,4.432689271E0
1.927642750E0,-5.087263267E-1,-1.357571447E0,3.601457410E0,3.882305782E0
1.937703750E0,1.321533449E0,-1.847293299E-1,2.070683250E0,2.463392925E0
1.947763750E0,2.371129270E0,1.646285321E0,1.783492283E0,3.393133374E0
1.957824750E0,1.046499574E0,1.762143806E0,2.563592420E0,3.282120998E0
1.967885750E0,7.477518779E-1,2.418932889E0,2.178527395E0,3.340112394E0
1.977945750E0,-5.141456723E-3,3.039639389E0,2.054300375E0,3.668730581E0
1.988006750E0,-1.311591282E0,-1.602049381E-1,3.314743576E0,3.568397720E0
1.998067750E0,1.376848255E0,-2.905607173E0,4.744418501E0,5.731297504E0
2.008127750E0,1.462460263E-1,-2.220833316E0,3.863002197E0,4.458281563E0
2.018188750E0,2.523610036E-1,-1.596503881E0,2.189721889E0,2.721652563E0
2.028249750E0,4.485308495E-1,-1.221873944E0,5.160179508E-1,1.400153700E0
2.038309750E0,5.756744608E-1,-1.487495994E0,-4.363755114E-1,1.653622993E0
2.048370750E0,1.099211492E0,-1.193517871E0,-1.102082475E0,1.961462872E0
2.058431750E0,2.187692028E0,-6.403315097E-1,-1.881139323E0,2.955453604E0
2.068491750E0,2.916590290E0,-5.980409378E-1,-1.530811729E0,3.347765887E0
2.078552750E0,4.029832323E0,-1.000859132E0,-1.467989098E0,4.404118475E0
2.088613750E0,3.742268304E0,-1.171618879E0,-1.572471971E0,4.224917864E0
2.098673750E0,3.092379812E0,-2.049801673E0,-9.668476331E-1,3.833965851E0
2.108734750E0,2.485326853E0,-2.761907755E0,-7.885993570E-3,3.715514258E0
2.118795750E0,3.157910728E0,-2.609174389E0,1.146726698E-1,4.097967908E0
2.128855750E0,3.439557365E0,-2.539214793E0,4.792477351E-1,4.302074502E0
2.138916750E0,3.980929720E0,-2.349750972E0,-9.409880295E-2,4.623633382E0
2.148977750E0,3.374119420E0,-1.519835190E0,-2.902541039E-1,3.711984417E0
2.159037750E0,2.025430917E0,-1.163403541E0,3.524567109E-1,2.362224361E0
2.169098750E0,-3.303450264E-1,-2.279396104E0,7.040223062E-1,2.408406495E0
2.179159750E0,-1.600193620E0,-3.573542803E0,-5.660005714E-1,3.956157787E0
2.189219750E0,-1.773621013E0,-3.080261750E0,-2.355124564E0,4.263842828E0
2.199280750E0,-1.339187070E0,-1.229040876E0,-1.807684845E0,2.563530375E0
2.209341750E0,-2.129793922E0,1.060337010E0,-1.152537661E0,2.643611126E0
2.219401750E0,-1.897484483E0,3.454180666E0,-1.883325012E0,4.367919933E0
2.229462750E0,1.538744939E0,6.578745015E0,-5.138571707E0,8.488376827E0
2.239523750E0,-5.000354639E0,4.405516806E0,-3.308320702E0,7.440235931E0
2.249583750E0,-7.303996807E0,1.689911397E0,-3.373197899E0,8.220865767E0
2.259644750E0,-3.362468551E0,9.837256211E-1,-2.630712608E0,4.381159627E0
2.269705750E0,-2.510102091E0,2.044128120E-2,-2.017219234E0,3.220280079E0
2.279765750E0,-5.911934097E-1,1.952882320E-1,-3.319656115E0,3.377538136E0
2.289826750E0,1.136689952E-1,7.747092962E-1,-3.220771512E0,3.314583573E0
2.299887750E0,3.508789860E-1,8.097727096E-1,-1.949347093E0,2.139813542E0
2.309947750E0,1.659795386E-1,3.465761077E0,1.303137524E0,3.706375110E0
2.320008750E0,-2.191170537E0,3.118928218E0,2.562081499E0,4.592733735E0
2.330069750E0,-1.621708304E0,4.842821878E-1,1.157306723E0,2.050323368E0
2.340129750E0,-4.379207113E-1,-9.641830570E-1,1.834455153E0,2.118171198E0
2.350190750E0,-2.200904397E0,-2.934395354E0,6.790068213E-1,3.730376191E0
2.360251750E0,1.415159212E0,-6.323559076E-1,1.668666708E0,2.277498227E0
2.370311750E0,1.589671994E0,1.267077014E0,2.989997113E0,3.615608378E0
2.380372750E0,3.978941081E-1,1.364482271E0,2.139663438E0,2.568713922E0
2.390433750E0,-6.038109702E-1,2.218650550E0,1.283632236E0,2.633383692E0
2.400494750E0,-8.582323864E-2,2.013690439E0,-4.290125513E-1,2.060671391E0
2.410554750E0,-1.123887620E0,1.832036160E0,-5.934806943E-2,2.150116756E0
2.420615500E0,-2.056305824E0,1.923388379E0,4.070216118E-1,2.844904759E0
2.430676500E0,-2.203945241E0,2.967271909E0,3.118144691E-1,3.709353781E0
2.440736500E0,-1.645158709E0,3.510144952E0,-1.658669724E0,4.216497363E0
2.450797500E0,-9.184730333E-1,4.478107064E0,-3.951700366E0,6.042596410E0
2.460858500E0,-1.673027123E0,6.798792697E0,-2.673824421E0,7.494794122E0
2.470918500E0,-1.533328955E0,7.370148697E0,-2.253619385E0,7.858052547E0
2.480979500E0,-1.022306354E0,7.046183129E0,-2.893844329E0,7.685580132E0
2.491040500E0,-9.097456254E-1,7.097997646E0,-2.081935047E0,7.452761986E0
2.501100500E0,-3.419491913E-1,6.666518154E0,-1.840286581E0,6.924308503E0
2.511161500E0,2.314959455E-1,6.171288224E0,-2.202706655E0,6.556699271E0
2.521222500E0,4.017095625E-2,4.854379485E0,-1.993301344E0,5.247843761E0
2.531282500E0,-1.225212412E-1,2.661929138E0,-1.565525625E0,3.090590344E0
2.541343500E0,-3.025327452E-1,-1.118256020E0,4.384860639E-1,1.238665660E0
2.551404500E0,-8.404100731E-1,-5.780006586E0,1.709001241E0,6.085675843E0
2.561464500E0,-4.101894870E-1,-9.478123734E0,3.376425562E0,1.006992227E1
2.571525500E0,5.473372458E-1,-1.262651958E1,4.431269113E0,1.339271148E1
2.581586500E0,1.393685751E0,-1.487573060E1,5.071952040E0,1.577828946E1
2.591646500E0,1.514539805E0,-1.511221305E1,5.266416984E0,1.607507269E1
2.601707500E0,9.073260476E-1,-1.335877341E1,4.110757203E0,1.400636971E1
2.611768500E0,5.231935076E-1,-9.278751807E0,2.450397926E0,9.611109017E0
2.621828500E0,9.205471869E-1,-5.854841006E0,5.789369148E-1,5.954975926E0
2.631889500E0,6.101841429E-1,-2.612703769E0,-1.039539049E0,2.877357660E0
2.641950500E0,1.167639264E-1,7.880894798E-1,-2.523872284E0,2.646629960E0
2.652010500E0,1.367498996E0,2.549787728E0,-2.563197148E0,3.865417258E0
2.662071500E0,4.089477723E0,2.986679987E0,-1.485163832E0,5.277290688E0
2.672132500E0,6.287268332E0,3.985504289E0,-5.252954355E-1,7.462568110E0
2.682192500E0,8.426081584E0,3.915738235E0,-1.604538248E0,9.429019025E0
2.692253500E0,1.055001777E1,3.448671420E0,-2.203331430E0,1.131595682E1
2.702314500E0,1.185856148E1,2.509802713E0,-2.180499807E0,1.231580973E1
2.712374500E0,9.942735304E0,8.999630874E-1,-1.560419544E0,1.010459440E1
2.722435500E0,5.817483730E0,-8.377323407E-1,-1.293977714E0,6.018246485E0
2.732496500E0,2.400930189E0,-1.921504406E0,-1.223031108E0,3.309448602E0
2.742556500E0,-6.112743562E-1,-2.615161353E0,-1.221410260E0,2.950350533E0
2.752617500E0,-2.997956927E0,-4.109662312E0,-8.867118350E-1,5.163654513E0
2.762678500E0,-4.678257841E0,-5.985223975E0,-3.293113849E-1,7.603778564E0
2.772738500E0,-5.944268907E0,-7.608857768E0,4.307497591E-2,9.655615197E0
2.782799500E0,-6.856268488E0,-7.932963084E0,-1.766709897E-1,1.048673131E1
2.792860500E0,-8.160504557E0,-5.900425900E0,-8.461289424E-1,1.010568130E1
2.802920500E0,-8.536651847E0,-2.959175270E0,-1.889772736E0,9.230513747E0
2.812981500E0,-8.055552299E0,-6.336551589E-1,-3.006581863E0,8.621657393E0
2.823042500E0,-6.709439641E0,4.882050848E-1,-3.239517685E0,7.466552038E0
2.833102500E0,-4.484755056E0,1.042839217E-1,-3.157752560E0,5.485918727E0
2.843163500E0,-2.182350743E0,-7.684147686E-1,-2.866239332E0,3.683536878E0
2.853224500E0,-1.172354605E0,-4.209018785E-1,-2.657630850E0,2.935059701E0
2.863284500E0,-3.782549188E-1,6.063328743E-2,-2.630316459E0,2.658066563E0
2.873345500E0,5.259362172E-1,6.850825900E-1,-2.395871763E0,2.546791818E0
2.883406500E0,1.068538095E0,1.203285061E0,-1.522239126E0,2.215147976E0
2.893466500E0,9.729648440E-1,1.680488609E0,-8.914144582E-1,2.136661482E0
2.903527500E0,8.401820317E-1,1.725830843E0,-8.102194369E-1,2.083471497E0
2.913588500E0,8.159791636E-1,1.553640867E0,-7.037214670E-1,1.890726274E0
2.923648500E0,2.163680291E-1,1.275680022E0,-6.233677138E-1,1.436231858E0
2.933709500E0,-4.345834129E-1,8.915618080E-1,-1.508910544E-1,1.003251370E0
2.943770500E0,-9.829033564E-1,3.479075772E-1,5.786701356E-1,1.192475499E0
2.953830500E0,-1.334333735E0,-1.238253164E-1,6.130862622E-1,1.473653280E0
2.963891500E0,-1.337540056E0,-5.571390796E-1,7.032123207E-1,1.610566646E0
2.973952500E0,-1.146496975E0,-7.176393020E-1,8.310232455E-1,1.587470036E0
2.984012500E0,-1.023109761E0,-5.722529626E-1,1.206788054E0,1.682428140E0
2.994073500E0,-1.162369096E0,-3.026577294E-1,1.722921268E0,2.100276485E0
3.004134500E0,-1.644316564E0,1.274693012E-4,1.872331077E0,2.491866898E0
3.014194500E0,-2.233264058E0,2.270386130E-1,1.757648028E0,2.851024636E0
3.024255500E0,-2.649201212E0,2.502099591E-1,1.619468821E0,3.115052382E0
3.034316500E0,-2.828164017E0,1.729273099E-1,1.316767822E0,3.124466844E0
3.044377500E0,-2.897649405E0,4.981944680E-2,1.079666078E0,3.092657900E0
3.054437500E0,-2.792627272E0,-1.858157426E-1,1.050497316E0,2.989454663E0
3.064498500E0,-2.687316579E0,-3.658830875E-1,1.006672946E0,2.892910515E0
3.074559500E0,-2.577535105E0,-5.039726865E-1,7.988033330E-1,2.745134323E0
3.084619500E0,-2.543898705E0,-6.107451832E-1,7.363218869E-1,2.717830057E0
3.094680500E0,-2.556525767E0,-5.033534664E-1,4.766948408E-1,2.648853843E0
3.104741500E0,-2.494054407E0,-2.277870566E-1,5.787208602E-2,2.505103493E0
3.114801500E0,-2.395291134E0,2.188349694E-1,-1.411126095E-1,2.409402650E0
3.124862500E0,-2.066862679E0,8.998566681E-1,4.796763361E-2,2.254764788E0
3.134923500E0,-1.544238983E0,1.293419890E0,2.653467194E-1,2.031752428E0
3.144983500E0,-7.921231084E-1,1.342470428E0,3.937193424E-1,1.607700466E0
3.155044500E0,1.261464052E-1,1.263065824E0,5.200209546E-1,1.371739766E0
3.165105500E0,1.065430812E0,1.133114964E0,7.178071171E-1,1.712991359E0
3.175165500E0,1.896099862E0,9.172942346E-1,9.315959394E-1,2.303148800E0
3.185226500E0,2.615423016E0,6.942440075E-1,9.109587034E-1,2.855215938E0
3.195287500E0,3.192604597E0,5.290940791E-1,7.018132281E-1,3.311375313E0
3.205347500E0,3.879330254E0,1.647055399E-1,9.274567685E-1,3.992055510E0
3.215408500E0,4.545130481E0,-3.280229509E-1,1.280803937E0,4.733526051E0
3.225469500E0,5.040478817E0,-4.662955678E-1,8.875542726E-1,5.139222787E0
3.235529500E0,5.903279341E0,-6.323734492E-1,-9.109242779E-1,6.006528631E0
3.245590500E0,4.868626518E0,1.200187790E-1,-1.767277077E0,5.180849056E0
3.255651500E0,3.515425280E0,5.954418504E-1,-2.544912320E0,4.380564417E0
3.265711500E0,3.052088403E0,6.176887518E-1,-2.364649678E0,3.910032112E0
3.275772500E0,2.387993078E0,6.766421342E-1,-1.905874799E0,3.129331281E0
3.285833500E0,2.030612281E0,9.005647659E-1,-1.229460706E0,2.538892822E0
3.295893500E0,2.762346589E0,8.574795574E-1,-5.263949678E-1,2.939884612E0
3.305954500E0,3.183508376E0,1.034619786E0,5.800063340E-1,3.397288776E0
3.316015500E0,2.388184867E0,1.089913396E0,1.523517181E0,3.035200615E0
3.326075500E0,1.715092285E0,1.112496513E0,2.080355129E0,2.916687762E0
3.336136500E0,1.275278319E0,8.071315223E-1,2.541962984E0,2.956242868E0
3.346197500E0,9.179381593E-1,1.413833356E-1,3.022428694E0,3.161910012E0
3.356257500E0,4.888164843E-1,-3.213922083E-1,3.191505028E0,3.244678544E0
3.366318500E0,8.008156523E-2,-2.726702839E-1,3.264951904E0,3.277296611E0
3.376379500E0,-1.043175432E-1,-3.613093954E-1,2.851613399E0,2.876304157E0
3.386439500E0,-7.057631685E-1,-3.450880498E-1,2.394607887E0,2.520185379E0
3.396500500E0,-1.112198962E0,-4.240669763E-1,1.794371320E0,2.153273732E0
3.406561500E0,-1.432358505E0,-3.902887809E-1,1.435977931E0,2.065431876E0
3.416621208E0,-2.173316795E0,9.039432871E-1,2.657265984E0,3.549856598E0
3.426682208E0,-1.010955739E0,9.672762340E-1,1.272352957E0,1.891173410E0
3.436743208E0,-3.576064999E-1,1.833476329E-1,2.156534994E-1,4.560758655E-1
3.446803208E0,2.963032678E-2,8.150960147E-2,6.535672671E-1,6.592965524E-1
3.456864208E0,-3.666192520E-1,2.628469616E-1,1.729470735E0,1.787335230E0
3.466925208E0,-6.098900279E-1,1.837873435E-1,2.041710881E0,2.138767625E0
3.476985208E0,-3.486024456E-1,5.781200588E-2,1.642319155E0,1.679904193E0
3.487046208E0,8.287448779E-2,2.741952378E-1,1.221877452E0,1.255004270E0
3.497107208E0,-1.513807587E-2,1.387658880E0,8.610679936E-1,1.633176175E0
3.507167208E0,5.009564734E-1,1.039002859E0,2.041234918E0,2.344594702E0
3.517228208E0,1.113202125E0,-6.405449331E-2,2.914454595E0,3.120475530E0
3.527289208E0,1.527929929E0,-8.312121105E-1,2.973641281E0,3.445000132E0
3.537349208E0,1.996215012E0,-1.347921202E0,2.940082941E0,3.800770138E0
3.547410208E0,2.380586118E0,-1.589956169E0,2.660717010E0,3.908268913E0
3.557471208E0,2.722851278E0,-1.706991114E0,2.280725176E0,3.940741691E0
3.567531208E0,2.980342775E0,-1.585813417E0,2.108630510E0,3.980398206E0
3.577592208E0,2.985020255E0,-1.359702172E0,1.852259340E0,3.766961718E0
3.587653208E0,2.769682213E0,-7.767312634E-1,1.293342707E0,3.153916038E0
3.597713208E0,4.489919025E0,7.621477228E-1,-2.993065732E0,5.449649940E0
3.607774208E0,5.002238027E0,1.582041963E0,-4.428225637E0,6.865451503E0
3.617835208E0,3.359636452E0,1.544893432E0,-1.735889662E0,4.084992744E0
3.627895208E0,2.669305693E0,1.872314120E0,-6.300328088E-1,3.320797252E0
3.637956208E0,2.316220553E0,1.694692081E0,-1.979873067E-1,2.876813840E0
3.648017208E0,1.971686088E0,1.339750888E0,-2.565914641E-1,2.397564942E0
3.658077208E0,1.684921822E0,8.572333896E-1,-8.014953911E-1,2.053340082E0
3.668138208E0,1.173401549E0,-1.088978426E0,-1.405357817E0,2.130205578E0
3.678199208E0,5.985888219E-1,-3.639514598E0,-1.736156733E0,4.076593589E0
3.688259208E0,2.223728272E-1,-5.586249740E0,-2.013707396E0,5.942276778E0
3.698320208E0,3.281492507E-1,-7.272693738E0,-2.310976331E0,7.638086655E0
3.708381208E0,1.014315184E0,-8.560241854E0,-2.498886546E0,8.975021441E0
3.718442208E0,2.011435753E0,-9.182113704E0,-3.173863686E0,9.921214470E0
3.728502208E0,2.727766448E0,-8.149577281E0,-6.225139326E0,1.061172367E1
3.738563208E0,3.229952517E0,-5.041687437E0,-9.018200462E0,1.082493164E1
3.748624208E0,2.730862841E0,-2.933493129E0,-8.830600734E0,9.697551398E0
3.758684208E0,1.814501822E0,-1.805273454E0,-7.203779039E0,7.644989310E0
3.768745208E0,1.097885198E0,-7.498767561E-1,-5.145163858E0,5.314167685E0
3.778806208E0,6.068262331E-1,-2.609191346E-1,-3.395447139E0,3.459100771E0
3.788866208E0,3.606762882E-1,4.098091257E-1,-1.990462082E0,2.063969526E0
3.798927208E0,2.149266905E-1,1.024166134E0,-5.033669150E-1,1.161244162E0
3.808988208E0,2.733982623E-2,1.825413603E0,5.505919522E-1,1.906838689E0
3.819048208E0,6.236932576E-2,2.557633522E0,1.282414845E0,2.861811839E0
3.829109208E0,-1.251883024E-1,3.357768851E0,2.626962789E0,4.265116324E0
3.839170208E0,-6.426493460E-1,3.879342241E0,3.203777164E0,5.072128008E0
3.849230208E0,-1.533149592E0,3.460913150E0,2.369212845E0,4.465606007E0
3.859291208E0,-2.384217677E0,3.047720241E0,1.728371458E0,4.237966552E0
3.869352208E0,-2.920339233E0,2.879256696E0,1.491291422E0,4.363765628E0
3.879412208E0,-3.160709790E0,2.605640917E0,1.439659046E0,4.341896951E0
3.889473208E0,-3.292409551E0,1.971706261E0,1.500240293E0,4.120474144E0
3.899534208E0,-3.710215037E0,9.324315065E-1,1.517347784E0,4.115515573E0
3.909594208E0,-4.203563333E0,-2.118288356E-1,1.065846257E0,4.341755911E0
3.919655208E0,-4.586220620E0,-1.014679027E0,2.282025012E-1,4.702666210E0
3.929716208E0,-4.885158351E0,-1.464832771E0,-7.146624845E-1,5.149878603E0
3.939776208E0,-4.733377496E0,-1.252684677E0,-3.083456084E0,5.786344515E0
3.949837208E0,-3.001806734E0,-4.739215064E-1,-4.722939924E0,5.616191484E0
3.959898208E0,-1.474558737E0,-3.351740956E-2,-3.161310591E0,3.488456899E0
3.969958208E0,-8.978151128E-1,-5.245361745E-2,-1.854958414E0,2.061478614E0
3.980019208E0,-3.968362007E-1,-5.338507891E-2,-1.035084932E0,1.109833210E0
3.990080208E0,1.854383048E-1,1.108889365E-1,-3.703746262E-1,4.287902575E-1
4.000140208E0,8.847451240E-1,2.717411613E-1,-4.338400126E-2,9.265524080E-1
4.010201208E0,1.531209778E0,3.633500737E-1,-2.194720235E-1,1.588960235E0
4.020262208E0,2.268517652E0,5.032347679E-1,-5.286011589E-1,2.383031001E0
4.030322208E0,2.823510511E0,6.497426033E-1,-7.315635690E-1,2.988237325E0
4.040383208E0,3.119234027E0,7.865785593E-1,-6.926675981E-1,3.290610148E0
4.050444208E0,3.329793140E0,9.846179062E-1,-4.220262980E-1,3.497870920E0
4.060504208E0,2.791154943E0,1.001423389E0,-1.940752271E-1,2.971709931E0
4.070565208E0,1.277608726E0,6.510874629E-1,-1.301362163E-1,1.439838316E0
4.080626208E0,3.196055916E-1,5.865523285E-1,-9.864837527E-3,6.680484138E-1
4.090686208E0,6.422727853E-2,6.980183852E-1,-8.197123915E-2,7.057436457E-1
4.100747208E0,7.496130466E-4,8.791943622E-1,-2.411195853E-1,9.116588961E-1
4.110808208E0,5.856571198E-3,1.041008454E0,-2.953794077E-1,1.082119169E0
4.120868208E0,6.022310525E-2,1.117950795E0,-3.253349859E-1,1.165883209E0
4.130929208E0,2.579928955E-1,1.176793081E0,-3.329132697E-1,1.249893409E0
4.140990208E0,5.519037750E-1,1.205851403E0,-3.334731406E-1,1.367435454E0
4.151050208E0,8.303063768E-1,1.173976477E0,-2.037283954E-1,1.452286028E0
4.161111208E0,1.060357768E0,9.888080209E-1,5.752315342E-2,1.451002692E0
4.171172208E0,1.413664956E0,5.848981512E-1,4.275174183E-1,1.588497906E0
4.181232208E0,1.909741270E0,-9.038625956E-3,8.172241089E-1,2.077269520E0
4.191293208E0,2.480071668E0,-5.376193196E-1,1.087293844E0,2.760796609E0
4.201354208E0,3.098068276E0,-6.747558224E-1,1.263138329E0,3.413039833E0
4.211414208E0,3.572176016E0,-4.175748128E-1,1.371367952E0,3.849085642E0
4.221475208E0,3.807832548E0,7.056712210E-2,1.338994550E0,4.037013109E0
4.231536208E0,3.800272098E0,5.767214048E-1,1.174553012E0,4.019235049E0
4.241596208E0,3.337853234E0,8.297122997E-1,8.013758156E-1,3.531556302E0
4.251657208E0,2.490704538E0,3.336275071E-1,-4.001217511E-1,2.544604846E0
4.261718208E0,1.834025821E0,-7.984332043E-1,-7.705226898E-1,2.143560475E0
4.271778208E0,1.072283456E0,-1.691152761E0,-7.786526585E-1,2.148508654E0
4.281839208E0,2.839896163E-1,-2.299774820E0,-7.755787772E-1,2.443590957E0
4.291900208E0,-3.747037585E-1,-2.774130190E0,-4.928816879E-1,2.842381673E0
4.301960208E0,-9.806562714E-1,-2.999400605E0,-8.445455164E-2,3.156774189E0
4.312021208E0,-8.798172368E-1,-3.275188624E0,1.418402955E-1,3.394268340E0
4.322082208E0,1.492012091E-1,-4.215625554E0,2.554268450E-1,4.225991325E0
4.332143208E0,1.814318219E0,-5.442495359E0,6.213070089E-1,5.770487737E0
4.342203208E0,3.236765693E0,-6.422091091E0,1.315052541E0,7.310900719E0
4.352264208E0,3.653977979E0,-6.119319926E0,2.043423530E0,7.414392163E0
4.362325208E0,2.524312871E0,-2.886106709E0,2.596066978E0,4.630478502E0
4.372385208E0,6.504860768E-1,4.581463033E-1,2.018139001E0,2.169312148E0
4.382446208E0,-1.763348040E0,2.903699226E0,-8.623394707E-1,3.504924375E0
4.392507208E0,-3.430612002E0,4.389203659E0,-2.350682141E0,6.046479471E0
4.402567208E0,-3.459882286E0,4.904861421E0,-1.025651034E0,6.089368690E0
4.412628208E0,-3.473004315E0,5.249950055E0,-8.484953105E-1,6.351667407E0
4.422688708E0,-3.396516303E0,5.211071919E0,-1.104177094E0,6.317499552E0
4.432748708E0,-3.042281746E0,4.028390107E0,-1.476509368E0,5.259608825E0
4.442809708E0,-3.197722080E0,1.624323764E0,-1.993735646E0,4.103515081E0
4.452870708E0,-3.054049267E0,-1.537882036E-1,-2.191473277E0,3.762103515E0
4.462930708E0,-2.437526743E0,-1.644928182E0,-1.941718962E0,3.523861216E0
4.472991708E0,-1.777682489E0,-2.779109679E0,-1.454230307E0,3.605328200E0
4.483052708E0,-1.188792006E0,-3.384711066E0,-9.157201642E-1,3.702436881E0
4.493112708E0,-7.750221223E-1,-3.315816833E0,-3.325101042E-1,3.421383277E0
4.503173708E0,-5.338680384E-1,-2.720066834E0,9.724562824E-2,2.773668217E0
4.513234708E0,-6.861432749E-1,-1.838885003E0,3.997546922E-1,2.003021334E0
4.523294708E0,-1.267083153E0,-9.904814941E-1,7.352037531E-1,1.768354565E0
4.533355708E0,-1.694599110E0,-2.495375293E-1,7.286425924E-1,1.861412138E0
4.543416708E0,-1.956841469E0,2.464607245E-1,5.137083006E-1,2.038103933E0
4.553476708E0,-2.177931418E0,5.539383137E-1,2.250492440E-1,2.258512802E0
4.563537708E0,-2.409286445E0,8.545366538E-1,9.732105732E-2,2.558195742E0
4.573598708E0,-2.644137231E0,1.105985638E0,7.369713664E-2,2.867071187E0
4.583658708E0,-2.825248303E0,1.228835054E0,8.621953368E-2,3.082125464E0
4.593719708E0,-3.187985297E0,9.136099041E-1,1.760200484E-1,3.320981235E0
4.603780708E0,-3.449914538E0,4.094115150E-1,3.439980557E-1,3.491111967E0
4.613840708E0,-3.601869347E0,-2.530230546E-1,5.534407157E-1,3.652913917E0
4.623901708E0,-3.478373521E0,-9.593672901E-1,8.211302682E-1,3.700503056E0
4.633962708E0,-3.312475441E0,-1.444225429E0,8.735143038E-1,3.717701962E0
4.644022708E0,-3.075687473E0,-1.554484035E0,7.340466622E-1,3.523506571E0
4.654083708E0,-2.625367084E0,-1.239885707E0,6.123560911E-1,2.967296559E0
4.664144708E0,-2.251960091E0,-7.471841133E-1,6.520556887E-1,2.460647267E0
4.674204708E0,-2.060532776E0,-1.497220498E-1,9.034848654E-1,2.254882905E0
4.684265708E0,-1.876538879E0,3.332620561E-1,1.148918234E0,2.225415663E0
4.694326708E0,-1.655613384E0,6.226232171E-1,1.292005448E0,2.190432247E0
4.704386708E0,-1.358800678E0,8.040985715E-1,1.309184568E0,2.051067534E0
4.714447708E0,-9.615529794E-1,8.891246885E-1,1.239633692E0,1.803279938E0
4.724508708E0,-5.295295505E-1,8.468078041E-1,1.092399048E0,1.480142115E0
4.734568708E0,-6.485344224E-2,7.724142641E-1,9.419121820E-1,1.219847664E0
4.744629708E0,4.764425334E-1,6.627397943E-1,9.247664646E-1,1.233456338E0
4.754690708E0,9.167132407E-1,6.193557930E-1,9.163153376E-1,1.436523081E0
4.764750708E0,1.384894609E0,6.000500411E-1,1.009549849E0,1.815814976E0
4.774811708E0,1.866671411E0,5.760466361E-1,1.103607064E0,2.243711308E0
4.784872708E0,2.246207308E0,5.282924259E-1,1.081246726E0,2.548261102E0
4.794932708E0,2.582332746E0,5.073611480E-1,8.975604665E-1,2.780552559E0
4.804993708E0,2.937276862E0,4.675205594E-1,6.308794125E-1,3.040424259E0
4.815054708E0,3.277355310E0,4.715124536E-1,2.726259182E-1,3.322304428E0
4.825114708E0,3.371791936E0,4.651553607E-1,-1.063210186E-1,3.405386105E0
4.835175708E0,3.259701689E0,5.617852771E-1,-3.829499406E-1,3.329851116E0
4.845236708E0,3.043102987E0,8.134412527E-1,-5.399522855E-1,3.195889693E0
4.855296708E0,2.818971317E0,1.023441079E0,-6.144757799E-1,3.061308775E0
4.865357708E0,2.670322816E0,1.250914140E0,-5.712438063E-1,3.003619419E0
4.875418708E0,2.543274807E0,1.344536249E0,-3.727226488E-1,2.900852744E0
4.885478708E0,2.533600589E0,1.408462688E0,-5.637362737E-2,2.899323554E0
4.895539708E0,2.537802690E0,1.442516872E0,2.970123158E-1,2.934197290E0
4.905600708E0,2.421565890E0,1.401507425E0,6.019094191E-1,2.861904850E0
4.915661708E0,2.186352285E0,1.307792931E0,9.064856565E-1,2.704103347E0
4.925721708E0,1.776779241E0,1.180151721E0,1.176905347E0,2.436146291E0
4.935782708E0,1.298410196E0,1.038273711E0,1.505189669E0,2.242649610E0
4.945843708E0,7.583974649E-1,9.386470968E-1,1.838378050E0,2.199058649E0
4.955903708E0,3.234753155E-1,9.287629634E-1,2.409180318E0,2.602188834E0
4.965964708E0,-1.473470205E-1,8.077320313E-1,3.138892951E0,3.244501678E0
4.976025708E0,-6.445533456E-1,6.304409444E-1,3.678372270E0,3.787258554E0
4.986085708E0,-1.043112209E0,4.301410639E-1,4.134768502E0,4.285955550E0
4.996146708E0,-1.479935544E0,2.116154122E-1,4.599377732E0,4.836245013E0
5.006207708E0,-1.934040837E0,1.453161728E-1,4.980617362E0,5.344920959E0
5.016267708E0,-2.151939228E0,3.168693870E-1,5.244693993E0,5.677857319E0
5.026328708E0,-2.018857623E0,8.846784657E-1,5.401318681E0,5.833753988E0
5.036389708E0,-1.313205406E0,1.577941895E0,5.253936102E0,5.640767114E0
5.046449708E0,-6.896710463E-2,1.932700655E0,4.810623600E0,5.184803536E0
5.056510708E0,1.295667852E0,1.561753879E0,4.343169115E0,4.793844837E0
5.066571708E0,2.358179441E0,7.137380397E-1,3.885716876E0,4.601002924E0
5.076631708E0,2.752850418E0,-5.502557373E-1,3.450046685E0,4.447897135E0
5.086692708E0,2.650277976E0,-1.993928604E0,2.960825354E0,4.445920760E0
5.096753708E0,2.763053225E0,-2.986409846E0,2.148795619E0,4.601133502E0
5.106813708E0,3.174066292E0,-3.921049261E0,8.822255588E-1,5.121293398E0
5.116874708E0,6.065192835E0,-4.838645212E0,-4.651745980E0,9.046424282E0
5.126935708E0,7.252713802E0,-5.173251543E0,-6.137383729E0,1.081812683E1
5.136995708E0,4.441112023E0,-4.724324545E0,-2.221588191E0,6.854062481E0
5.147056708E0,2.187864667E0,-3.775462947E0,-9.305095267E-1,4.461694773E0
5.157117708E0,8.274773477E-1,-2.672759936E0,-1.564530137E0,3.205638623E0
5.167177708E0,7.189327061E-2,-1.661132571E0,-2.780810634E0,3.239974976E0
5.177238708E0,-9.230316688E-1,-1.219787657E0,-2.601430922E0,3.017832373E0
5.187299708E0,-1.802539003E0,-8.418739235E-1,-1.357958533E0,2.408723715E0
5.197359708E0,-2.369283596E0,-7.260926217E-1,-4.078801292E-1,2.511390343E0
5.207420708E0,-2.707278389E0,-9.731100011E-1,4.728293927E-1,2.915453135E0
5.217481708E0,-2.549957297E0,-1.799604578E0,8.018731213E-1,3.222399627E0
5.227541708E0,-1.722104705E0,-2.855017648E0,5.587295222E-1,3.380672871E0
5.237602708E0,-6.085958929E-1,-3.530113193E0,-5.306671263E-1,3.621283711E0
5.247663708E0,-5.007555485E-3,-4.064001989E0,-1.511189204E0,4.335877080E0
5.257723708E0,2.333062434E-1,-3.944293697E0,-2.473217562E0,4.661404261E0
5.267784708E0,1.066146803E0,-2.654726538E0,-4.479005197E0,5.314671161E0
5.277845708E0,1.693055153E0,-1.355516151E0,-6.065051917E0,6.441173383E0
5.287905708E0,1.488673038E0,-6.899299318E-1,-6.429556816E0,6.635612374E0
5.297966708E0,9.918880418E-1,-3.327358067E-2,-6.201137676E0,6.280052348E0
5.308027708E0,5.422637630E-1,6.347754854E-1,-5.572492411E0,5.634683805E0
5.318087708E0,2.738470361E-1,1.237511153E0,-4.593905323E0,4.765542170E0
5.328148708E0,-9.841360956E-2,1.657602022E0,-3.181305437E0,3.588597775E0
5.338209708E0,-3.969940755E-1,1.917178051E0,-1.706224252E0,2.596993873E0
5.348269708E0,-6.116003385E-1,2.134827206E0,-2.273397446E-3,2.220708747E0
5.358330708E0,-7.267065793E-1,2.386697774E0,1.642382012E0,2.986946165E0
5.368391708E0,-8.349259695E-1,2.146759619E0,2.359530733E0,3.297432867E0
5.378451708E0,-9.300771251E-1,1.576873609E0,2.254401889E0,2.904118061E0
5.388512708E0,-1.081915282E0,9.844822508E-1,2.047592010E0,2.516421869E0
5.398573708E0,-1.639025418E0,3.201970375E-1,1.773965122E0,2.436366704E0
5.408634708E0,-2.710906001E0,-3.259425116E-1,1.453014086E0,3.092975882E0
5.418695083E0,-3.861413216E0,-7.505275512E-1,9.823673129E-1,4.054485068E0
5.428756083E0,-4.704031490E0,-5.257658440E-1,-5.999190634E-1,4.771189041E0
5.438817083E0,-5.098387302E0,3.463136262E-1,-3.815865453E0,6.377641834E0
5.448877083E0,-4.322532829E0,1.154777729E0,-6.094779162E0,7.560696707E0
5.458938083E0,-2.779089798E0,1.398189130E0,-5.979925228E0,6.740755053E0
5.468999083E0,-1.703916648E0,1.223171441E0,-4.625475610E0,5.078829091E0
5.479059083E0,-1.024329271E0,1.194247019E0,-2.858702563E0,3.263074738E0
5.489120083E0,-5.140070933E-1,1.305034214E0,-1.464515559E0,2.027837128E0
5.499181083E0,6.153960586E-2,1.226438280E0,-6.967226422E-1,1.411864164E0
5.509241083E0,7.139628652E-1,9.871392256E-1,-3.162507516E-1,1.258650611E0
5.519302083E0,1.264829344E0,9.084672779E-1,1.445256293E-2,1.557342269E0
5.529363083E0,1.722198845E0,1.037634611E0,3.636886275E-1,2.043263043E0
5.539423083E0,2.163910964E0,1.352032380E0,6.808541760E-1,2.640845437E0
5.549484083E0,2.512371103E0,1.576173112E0,9.437637028E-1,3.112397816E0
5.559545083E0,2.718491009E0,1.494317356E0,9.923526031E-1,3.256983484E0
5.569605083E0,2.647024001E0,1.301052845E0,9.618201971E-1,3.102349538E0
5.579666083E0,2.520619478E0,1.092695501E0,7.939653468E-1,2.859700506E0
5.589727083E0,2.368572867E0,9.506613708E-1,5.970966125E-1,2.621148381E0
5.599787083E0,2.234240397E0,7.331911415E-1,4.959812969E-1,2.403205536E0
5.609848083E0,2.399557555E0,6.138488853E-1,4.750567433E-1,2.521976571E0
5.619909083E0,2.987219685E0,4.145289981E-1,8.242586017E-1,3.126454538E0
5.629969083E0,3.988536655E0,2.903949487E-1,1.621176208E0,4.315201753E0
5.640030083E0,5.319205647E0,-4.885173261E-2,2.528963454E0,5.889990778E0
5.650091083E0,6.596981311E0,-9.320151848E-1,3.464114209E0,7.509254422E0
5.660151083E0,7.507289293E0,-2.411829107E0,4.122167459E0,8.897672546E0
5.670212083E0,7.400165378E0,-4.280447786E0,4.422138978E0,9.624967222E0
5.680273083E0,5.843536584E0,-6.130861745E0,4.082487962E0,9.402185571E0
5.690333083E0,3.304066561E0,-6.858042533E0,2.845979607E0,8.127066085E0
5.700394083E0,8.440800780E-1,-6.143046173E0,6.910271618E-1,6.239151064E0
5.710455083E0,-3.009998099E0,-5.027528404E0,-3.614731759E0,6.884941256E0
5.720515083E0,-6.405158724E0,-4.330770094E0,-7.723955530E0,1.092891197E1
5.730576083E0,-9.954171288E0,-3.166446785E0,-1.347895591E1,1.705268788E1
5.740637083E0,-1.002779826E1,-1.638654705E0,-1.052333809E1,1.462814314E1
5.750697083E0,-7.984941323E0,-5.479688913E-1,-4.818384610E0,9.342183261E0
5.760758083E0,-6.888781346E0,-5.260049951E-1,-2.063633847E0,7.210448970E0
5.770819083E0,-6.568286685E0,-4.733859015E-1,-1.611443225E0,6.779618976E0
5.780879083E0,-6.142954956E0,-5.820949960E-1,-1.452494561E0,6.339122229E0
5.790940083E0,-5.545668309E0,-1.074429384E0,-1.459520575E0,5.834298228E0
5.801001083E0,-5.001715286E0,-1.333618913E0,-1.689476072E0,5.445183615E0
5.811062083E0,-4.380904121E0,-1.351716045E0,-1.901824140E0,4.963506043E0
5.821122083E0,-3.808191567E0,-1.200593587E0,-1.837406827E0,4.395430789E0
5.831183083E0,-3.050577191E0,-8.375241798E-1,-1.661646249E0,3.573308859E0
5.841244083E0,-1.907411301E0,-4.218736857E-1,-1.145780033E0,2.264731146E0
5.851304083E0,-8.693539368E-1,-1.053960621E-2,-5.303924534E-1,1.018431885E0
5.861365083E0,5.100087672E-3,3.585612041E-1,4.308389291E-2,3.611763694E-1
5.871426083E0,4.513907227E-1,6.150849867E-1,2.800734437E-1,8.127264357E-1
5.881486083E0,1.667428561E-1,7.135170150E-1,4.559148596E-1,8.629994611E-1
5.891547083E0,-7.198320079E-1,5.118904012E-1,6.129677099E-1,1.075136882E0
5.901608083E0,-1.335884563E0,2.572710568E-1,6.453794110E-1,1.505752485E0
5.911668083E0,-1.633055557E0,1.567053795E-2,5.686386524E-1,1.729296370E0
5.921729083E0,-1.611448634E0,-1.051130569E-1,4.685794902E-1,1.681482141E0
5.931790083E0,-1.183853155E0,-1.094861895E-1,5.757525212E-1,1.320979365E0
5.941850083E0,-8.949419372E-1,-4.430961549E-2,8.097235930E-1,1.207698932E0
5.951911083E0,-6.852300860E-1,1.425668120E-2,1.077013415E0,1.276597595E0
5.961972083E0,-5.417481847E-1,2.009185159E-1,1.401062452E0,1.515531372E0
5.972032083E0,-4.655566259E-1,4.884243554E-1,1.657999048E0,1.790045297E0
5.982093083E0,-5.962674773E-1,7.666454011E-1,1.778496714E0,2.026408310E0
5.992154083E0,-8.155434729E-1,9.317953295E-1,1.720936139E0,2.120135582E0
6.002214083E0,-1.055764195E0,8.726232612E-1,1.609069109E0,2.113105011E0
6.012275083E0,-1.266848534E0,5.865189993E-1,1.545466459E0,2.082636867E0
6.022336083E0,-1.544228750E0,2.388581747E-1,1.403238201E0,2.100184066E0
6.032396083E0,-1.874885433E0,7.348078966E-2,1.197169385E0,2.225715469E0
6.042457083E0,-2.100703147E0,6.247282147E-2,8.933521523E-1,2.283623138E0
6.052518083E0,-2.253518959E0,7.802875400E-2,6.711808348E-1,2.352641047E0
6.062578083E0,-2.181469129E0,1.308940154E-1,5.090276776E-1,2.243891704E0
6.072639083E0,-1.804528811E0,2.840086198E-1,5.240971217E-1,1.900437560E0
6.082700083E0,-1.201098348E0,4.487352097E-1,6.768467867E-1,1.449869685E0
6.092760083E0,-5.004484235E-1,5.890233618E-1,8.676525432E-1,1.161988847E0
6.102821083E0,1.218912037E-1,6.038554090E-1,1.023959289E0,1.194985960E0
6.112882083E0,5.479671371E-1,5.827393591E-1,1.123328553E0,1.379028709E0
6.122942083E0,1.008412273E0,5.258956522E-1,1.196575965E0,1.650834816E0
6.133003083E0,1.433356624E0,4.124544060E-1,1.261736752E0,1.953614466E0
6.143064083E0,1.813451369E0,2.671008110E-1,1.201442603E0,2.191669008E0
6.153124083E0,2.239772301E0,1.222594321E-1,1.154953730E0,2.522983442E0
6.163185083E0,2.704446290E0,-3.073998213E-2,1.144082587E0,2.936647689E0
6.173246083E0,3.208127785E0,-7.329017043E-2,1.028319996E0,3.369702858E0
6.183306083E0,3.701675471E0,-9.038041234E-2,8.304671752E-1,3.794765558E0
6.193367083E0,4.156156739E0,-1.331428546E-1,6.119668128E-1,4.203078543E0
6.203428083E0,4.548383580E0,-1.887773573E-1,4.046880611E-1,4.570251908E0
6.213488083E0,4.848299257E0,-1.808274829E-1,1.774553937E-1,4.854914488E0
6.223549083E0,4.921789110E0,8.406951249E-2,-3.175587738E-1,4.932739533E0
6.233610083E0,4.434508470E0,6.876173580E-1,-1.059000921E0,4.610766309E0
6.243670083E0,3.648327814E0,1.221805531E0,-1.691168110E0,4.202755545E0
6.253731083E0,2.918231019E0,1.587187513E0,-2.018751204E0,3.887234609E0
6.263792083E0,2.241843970E0,1.896361379E0,-2.084579158E0,3.601044450E0
6.273852083E0,1.645681742E0,2.086005878E0,-1.852004986E0,3.238766955E0
6.283913083E0,1.066008224E0,2.034549796E0,-1.419589940E0,2.700185550E0
6.293974083E0,5.864322778E-1,1.819579836E0,-8.740078819E-1,2.102061696E0
6.304035083E0,2.137046589E-1,1.535912109E0,-1.632302143E-1,1.559275406E0
6.314095083E0,-6.453871585E-2,1.332104484E0,7.101349854E-1,1.510946491E0
6.324156083E0,-3.286069050E-1,1.137479911E0,1.761425768E0,2.122372206E0
6.334217083E0,-4.665540147E-1,8.854754412E-1,2.901312978E0,3.069097001E0
6.344277083E0,-3.871465238E-1,5.234228647E-1,3.952319586E0,4.005581610E0
6.354338083E0,1.205411547E-1,1.418236309E-1,4.746824630E0,4.750472417E0
6.364399083E0,8.720870715E-1,-2.024715364E-1,5.022154813E0,5.101330174E0
6.374459083E0,1.552392194E0,-5.651544428E-1,4.993284770E0,5.259487985E0
6.384520083E0,1.991582994E0,-8.405273098E-1,5.065531797E0,5.507495018E0
6.394581083E0,2.323119244E0,-1.031932991E0,4.827249573E0,5.455649106E0
6.404641083E0,2.465655066E0,-9.889278889E-1,4.389945670E0,5.131184684E0
6.414702083E0,2.312281722E0,-3.593675351E-1,3.737225080E0,4.409381259E0
6.424763458E0,1.940452893E0,3.966517210E-2,2.856302866E0,3.453316785E0
6.434823458E0,1.688177405E0,-4.618575311E-1,1.964498983E0,2.631066625E0
6.444884458E0,1.683970918E0,-1.313608571E0,1.386829160E0,2.546491832E0
6.454945458E0,1.930750608E0,-1.913966176E0,1.107955053E0,2.935750131E0
6.465005458E0,2.109724524E0,-2.304020483E0,9.308357283E-1,3.259739730E0
6.475066458E0,2.028955326E0,-2.479049283E0,7.310890675E-1,3.285853966E0
6.485127458E0,1.799096747E0,-2.417129023E0,4.601296788E-1,3.048111078E0
6.495187458E0,2.577171993E0,-1.883726715E0,-2.135660580E0,3.840740545E0
6.505248458E0,4.337418378E0,-8.158561528E-1,-6.277282457E0,7.673532074E0
6.515309458E0,2.309488215E0,-1.979190697E0,-2.262486834E0,3.790749042E0
6.525369458E0,9.036728534E-1,-3.222972988E0,-7.022004600E-1,3.420126459E0
6.535430458E0,3.914216790E-1,-4.150920850E0,-1.653047626E0,4.485077623E0
6.545491458E0,1.736678597E-1,-4.864827290E0,-3.760607511E0,6.151331070E0
6.555551458E0,-2.368107721E-2,-5.361490957E0,-5.500514356E0,7.681263194E0
6.565612458E0,-4.206633121E-2,-5.792317899E0,-5.680139067E0,8.112748981E0
6.575673458E0,2.953238592E-1,-5.852661749E0,-5.268210325E0,7.880032091E0
6.585733458E0,1.244706736E0,-4.568969872E0,-5.088268695E0,6.950917844E0
6.595794458E0,1.779623473E0,-3.226149196E0,-4.715188270E0,5.983986862E0
6.605855458E0,1.942412734E0,-2.247566201E0,-3.860996895E0,4.871531389E0
6.615915458E0,2.147142904E0,-1.251473134E0,-3.132067204E0,3.998281209E0
6.625976458E0,1.998891428E0,-4.699939317E-1,-2.715130907E0,3.404173480E0
6.636037458E0,1.560586190E0,3.080330747E-1,-2.112945170E0,2.644778048E0
6.646097458E0,9.709383452E-1,1.322419741E0,-1.205331294E0,2.035764910E0
6.656158458E0,4.619350067E-1,2.443755489E0,-4.443410271E-1,2.526413226E0
6.666219458E0,3.419761616E-1,3.265693331E0,-2.420943162E-1,3.292462647E0
6.676279458E0,3.722904664E-1,3.734569860E0,-2.670519868E-1,3.762569467E0
6.686340458E0,3.147921637E-1,3.866355575E0,-6.117772168E-1,3.927094461E0
6.696401458E0,-2.319575831E-1,3.724178188E0,-5.637604666E-1,3.773742620E0
6.706462458E0,-1.592765756E0,2.973560005E0,-1.124904889E-1,3.375146807E0
6.716522458E0,-3.117280473E0,1.849905835E0,1.711298758E-1,3.628894402E0
6.726583458E0,-4.223174601E0,1.153265054E0,1.305072221E-1,4.379755260E0
6.736644458E0,-4.977682060E0,1.060935180E0,-2.489124620E-1,5.095572545E0
6.746704458E0,-5.525443960E0,1.385852090E0,-8.828602740E-1,5.764595323E0
6.756765458E0,-5.837438523E0,1.943127410E0,-1.587283407E0,6.353809980E0
6.766826458E0,-5.614049742E0,2.476725599E0,-1.988541857E0,6.450273089E0
6.776886458E0,-4.911407379E0,2.852483464E0,-1.919896714E0,5.995380534E0
6.786947458E0,-3.913958927E0,2.952763798E0,-1.653293794E0,5.174095950E0
6.797008458E0,-2.637966371E0,2.634132060E0,-1.460747906E0,4.003910929E0
6.807068458E0,-1.115223946E0,2.264800285E0,-1.167893618E0,2.781549978E0
6.817129458E0,5.573276523E-1,2.022924362E0,-7.429823041E-1,2.225951435E0
6.827190458E0,2.378921854E0,1.816960868E0,-1.207131359E-1,2.995861754E0
6.837250458E0,4.503109174E0,1.399791852E0,5.733241725E-1,4.750379992E0
6.847311458E0,6.854200913E0,7.524740893E-1,1.589343819E0,7.076178431E0
6.857372458E0,9.017932075E0,5.075675547E-2,2.973469373E0,9.495640856E0
6.867432458E0,1.087841143E1,-7.778153372E-1,4.313567585E0,1.172824357E1
6.877493458E0,1.209932760E1,-1.781856524E0,4.923314649E0,1.318361742E1
6.887554458E0,1.184149463E1,-2.344893690E0,4.342025692E0,1.282858950E1
6.897614458E0,8.304244906E0,-1.532590891E0,1.385959679E0,8.557464725E0
6.907675458E0,2.531153237E0,-7.723218781E-1,7.788859624E-1,2.758601300E0
6.917736458E0,-1.198378954E0,3.993543041E-1,6.619916430E-1,1.426123737E0
6.927796458E0,-4.241967553E0,1.749723151E0,-1.296532363E0,4.768313747E0
6.937857458E0,-6.842083143E0,2.664207798E0,-3.167595763E0,7.996609772E0
6.947918458E0,-7.262225468E0,2.416105760E0,-2.610133040E0,8.086425680E0
6.957978458E0,-5.671639554E0,1.218186690E0,-1.829050279E0,6.082507621E0
6.968039458E0,-3.997601593E0,1.467879170E-1,-3.411602119E0,5.257508365E0
6.978100458E0,-1.973752202E0,8.567398846E-2,-3.090137697E0,3.667695295E0
6.988160458E0,6.609841678E-1,4.563745970E-1,-5.080008334E-1,9.503908088E-1
6.998221458E0,3.423103592E0,-8.749504530E-1,7.919088811E-1,3.620814297E0
7.008282458E0,6.329385826E0,-4.215281737E0,1.565394355E0,7.764031462E0
7.018342458E0,9.120160700E0,-8.056859152E0,1.655865107E0,1.228137614E1
7.028403458E0,1.080095453E1,-1.213487399E1,-8.364788438E-1,1.626700595E1
7.038464458E0,8.069306704E0,-1.453426256E1,-2.311306114E0,1.678393979E1
7.048524458E0,1.920038217E0,-1.285417858E1,-1.487988330E0,1.308168808E1
7.058585458E0,-1.758676992E0,-7.007809607E0,-1.059490479E0,7.302387303E0
7.068646458E0,-4.277822971E0,-3.099725962E0,-1.869179135E0,5.603739916E0
7.078706458E0,-5.858918855E0,-1.351263471E0,-2.105057276E0,6.370565850E0
7.088767458E0,-6.625526834E0,-1.783318913E-1,-1.749764958E0,6.855004412E0
7.098828458E0,-6.657527475E0,5.405762565E-1,-1.202467474E0,6.786812418E0
7.108889458E0,-6.494055698E0,9.719148302E-1,-9.336488968E-1,6.632426261E0
7.118949458E0,-6.481007051E0,1.305875044E0,-9.994277340E-1,6.686375537E0
7.129010458E0,-6.313084373E0,1.691545694E0,-8.750697362E-1,6.594096465E0
7.139071458E0,-6.330737118E0,2.136877824E0,-5.790591216E-1,6.706697306E0
7.149131458E0,-6.461863267E0,2.717783496E0,1.891808152E-1,7.012689456E0
7.159192458E0,-6.264627328E0,3.046312231E0,1.116342884E0,7.054912842E0
7.169253458E0,-5.818166685E0,2.822171499E0,1.893617865E0,6.738063829E0
7.179313458E0,-5.677120149E0,2.183524572E0,2.778223826E0,6.687002345E0
7.189374458E0,-6.087626263E0,1.063271143E0,3.656443457E0,7.180481724E0
7.199435458E0,-6.543713762E0,-1.206233811E-1,4.315584290E0,7.839579552E0
7.209495458E0,-7.008155762E0,-1.183524395E0,4.684443026E0,8.512284278E0
7.219556458E0,-7.131499268E0,-1.946142819E0,4.540834240E0,8.675536253E0
7.229617458E0,-6.845055867E0,-2.237489694E0,3.905093379E0,8.192124527E0
7.239677458E0,-6.247561644E0,-2.192535716E0,3.195374715E0,7.351847314E0
7.249738458E0,-5.585880196E0,-1.800369394E0,2.411726196E0,6.345061920E0
7.259799458E0,-4.836132079E0,-1.124545285E0,1.662002052E0,5.235936058E0
7.269859458E0,-4.020826734E0,-6.038074619E-1,1.155494013E0,4.226913471E0
7.279920458E0,-3.090491454E0,-2.383021045E-1,8.852906692E-1,3.223610536E0
7.289981458E0,-1.921588899E0,2.615284145E-2,7.965252578E-1,2.080298140E0
7.300041458E0,-3.316135067E-1,2.103652775E-1,8.999484694E-1,9.819003592E-1
7.310102458E0,1.434246570E0,3.206466883E-1,1.115893160E0,1.845289969E0
7.320163458E0,2.852336407E0,3.633804792E-1,1.444151754E0,3.217676590E0
7.330223458E0,4.354994524E0,1.841270667E-1,1.747174934E0,4.696008979E0
7.340284458E0,6.149399173E0,-1.428235048E-1,1.448928929E0,6.319406917E0
7.350345458E0,1.020744811E1,-4.250054544E-1,-4.081558254E0,1.100144283E1
7.360405458E0,1.009232111E1,1.443776947E-1,-4.535143729E0,1.106541093E1
7.370466458E0,6.282518638E0,2.229233426E-1,-1.412515393E0,6.443208440E0
7.380527458E0,4.202012066E0,2.656004155E-1,-1.307564889E0,4.408761155E0
7.390587458E0,2.341124575E0,6.507231814E-1,-1.930181674E0,3.103209022E0
7.400648458E0,7.018704578E-1,1.146703309E0,-1.867641025E0,2.301224373E0
7.410709458E0,1.401840717E-2,1.743456105E0,-1.499685684E0,2.299759304E0
7.420768833E0,8.888498694E-2,1.922834063E0,-1.067144338E0,2.200906271E0
7.430829833E0,3.321955240E-1,1.856127858E0,-3.213529954E-1,1.912807423E0
7.440890833E0,3.456083058E-1,1.560469830E0,2.015412809E-1,1.610940744E0
7.450950833E0,1.691381679E-1,1.027843448E0,5.035323912E-1,1.156985195E0
7.461011833E0,3.078390934E-2,4.810703123E-1,8.678191888E-1,9.927166962E-1
7.471072833E0,3.101217002E-4,2.317134619E-2,1.329646314E0,1.329848235E0
7.481133833E0,-1.962873749E-2,-4.238348418E-1,1.811062782E0,1.860099368E0
7.491193833E0,-2.197818529E-1,-7.881064367E-1,2.284096681E0,2.426213813E0
7.501254833E0,-4.090112731E-1,-1.011284133E0,2.529017833E0,2.754254349E0
7.511315833E0,-5.551532920E-1,-1.129614821E0,2.480957229E0,2.781972968E0
7.521375833E0,-6.923422006E-1,-8.368757236E-1,2.665774852E0,2.878550722E0
7.531436833E0,-7.884219671E-1,-2.928291446E-1,2.782792840E0,2.907110954E0
7.541497833E0,-9.136616519E-1,2.591281325E-1,2.798703114E0,2.955446518E0
7.551557833E0,-9.877663395E-1,7.620424730E-1,2.678168610E0,2.954484418E0
7.561618833E0,-1.103051871E0,1.181554468E0,2.614271407E0,3.073631302E0
7.571679833E0,-1.104240025E0,1.581761881E0,2.586408255E0,3.226580906E0
7.581739833E0,-1.043683043E0,1.872153906E0,2.716522837E0,3.460307915E0
7.591800833E0,-8.137568562E-1,1.841385273E0,2.952487224E0,3.573524976E0
7.601861833E0,-3.864120039E-1,1.403722351E0,3.161658500E0,3.480780824E0
7.611921833E0,-1.364135677E-1,9.296605110E-1,3.355869091E0,3.484929652E0
7.621982833E0,-2.918834306E-1,4.992785418E-1,3.502015568E0,3.549448977E0
7.632043833E0,-6.585883442E-1,3.573350430E-2,3.623917150E0,3.683448249E0
7.642103833E0,-1.060212245E0,-4.490790260E-1,3.766165874E0,3.938239120E0
7.652164833E0,-1.429952814E0,-8.626116586E-1,4.001923270E0,4.336387181E0
7.662225833E0,-1.691179658E0,-1.182261981E0,4.160048354E0,4.643687579E0
7.672285833E0,-1.721239024E0,-1.666309696E0,4.167239259E0,4.806780089E0
7.682346833E0,-1.318710121E0,-2.078166516E0,4.162733395E0,4.835919951E0
7.692407833E0,-4.339993492E-1,-2.087627311E0,4.166076833E0,4.680036261E0
7.702467833E0,7.748248518E-1,-1.683601667E0,4.319072739E0,4.699921004E0
7.712528833E0,1.958927464E0,-1.095560052E0,4.439065790E0,4.974228958E0
7.722589833E0,2.872124554E0,-4.862053370E-1,4.398127095E0,5.275321509E0
7.732649833E0,3.569263226E0,6.080227196E-2,4.138587903E0,5.465459424E0
7.742710833E0,3.846505448E0,5.461316961E-1,3.644613955E0,5.327013691E0
7.752771833E0,4.141732535E0,8.516598237E-1,3.007115421E0,5.188642983E0
7.762831833E0,4.387515860E0,1.009819406E0,2.348637224E0,5.078004280E0
7.772892833E0,4.473287789E0,9.891576844E-1,1.045532445E0,4.699135523E0
7.782953833E0,4.726231029E0,9.468840694E-1,-1.173062630E0,4.960839155E0
7.793013833E0,3.820312845E0,3.461697847E-1,-9.869445133E-1,3.960894246E0
7.803074833E0,2.302241030E0,-5.579389787E-1,6.659171712E-1,2.460702205E0
7.813135833E0,1.207549727E0,-1.284985866E0,1.817863094E0,2.532585881E0
7.823195833E0,6.440846913E-1,-1.196787634E0,1.862903026E0,2.305982094E0
7.833256833E0,3.187592071E-1,-8.599359727E-1,1.117463722E0,1.445621832E0
7.843317833E0,7.335960612E-2,-4.011511534E-1,-2.448404610E-1,4.756582082E-1
7.853378833E0,-3.056832249E-1,-1.637173605E-1,-8.803877789E-1,9.462178657E-1
7.863438833E0,-9.027931398E-1,-4.128362292E-1,-3.057070524E-1,1.038713631E0
7.873499833E0,-6.222166894E-1,-1.387305708E0,1.411330748E-1,1.526986994E0
7.883560833E0,3.666123815E-1,-2.923052925E0,-4.325629807E-1,2.977541566E0
7.893620833E0,7.259195441E-1,-4.464224020E0,-2.022297540E0,4.954386201E0
7.903681833E0,1.309543148E0,-5.760926537E0,-3.432445981E0,6.832632233E0
7.913742833E0,9.655827342E-1,-6.706679755E0,-4.221185086E0,7.983126385E0
7.923802833E0,5.941899616E-1,-6.988747099E0,-4.853762603E0,8.529634174E0
7.933863833E0,6.537611023E-2,-7.159090524E0,-6.035154519E0,9.363756791E0
7.943924833E0,4.140096192E-1,-6.285500134E0,-7.217774935E0,9.579936895E0
7.953984833E0,1.109129978E0,-4.460818602E0,-7.224034964E0,8.562461858E0
7.964045833E0,1.074686662E0,-2.970653354E0,-6.553287992E0,7.274978782E0
7.974106833E0,8.267129704E-1,-1.332133720E0,-6.198841474E0,6.394033954E0
7.984166833E0,6.053289074E-1,-2.915304780E-2,-5.220802855E0,5.255859153E0
7.994227833E0,6.055239120E-1,9.386318940E-1,-3.798068283E0,3.958915473E0
8.004288833E0,9.130357075E-1,1.844638079E0,-2.114118414E0,2.950562745E0
8.014348833E0,1.120776462E0,2.589476874E0,-6.877027273E-1,2.904215109E0
8.024409833E0,1.242995256E0,3.487086457E0,4.021194524E-1,3.723776204E0
8.034470833E0,1.239667021E0,4.190248638E0,7.293074208E-1,4.430219778E0
8.044530833E0,8.167653948E-1,3.788971184E0,9.113958558E-1,3.981714549E0
8.054591833E0,-4.618686408E-2,2.802414926E0,9.143390518E-1,2.948165285E0
8.064652833E0,-1.299900067E0,1.917616008E0,7.048993886E-1,2.421543823E0
8.074712833E0,-2.915222042E0,1.057147354E0,8.086933136E-2,3.102034805E0
8.084773833E0,-3.991139250E0,5.627220011E-1,-8.242518774E-1,4.114029621E0
8.094834833E0,-4.516886968E0,6.803252953E-1,-1.966732327E0,4.973243050E0
8.104894833E0,-4.970647275E0,1.185225935E0,-3.310720984E0,6.088757532E0
8.114955833E0,-5.183309923E0,1.820028902E0,-4.167681309E0,6.895561939E0
8.125016833E0,-5.007086538E0,2.377901807E0,-3.879326161E0,6.765685780E0
8.135076833E0,-4.358806908E0,2.594493200E0,-2.693376926E0,5.743245763E0
8.145137833E0,-3.419660167E0,2.832574280E0,-1.076309264E0,4.569025535E0
8.155198833E0,-2.272518024E0,2.961876099E0,1.728132892E-1,3.737233285E0
8.165258833E0,-8.642921484E-1,2.769382251E0,7.257096291E-1,2.990507220E0
8.175319833E0,5.774236554E-1,2.211873627E0,8.623040950E-1,2.443229701E0
8.185380833E0,1.769323602E0,1.497485962E0,9.637980178E-1,2.510353926E0
8.195441833E0,2.764973450E0,8.226254743E-1,1.040985650E0,3.066829303E0
8.205501833E0,3.929996378E0,4.203341138E-1,1.160665290E0,4.119307735E0
8.215562833E0,5.147584605E0,3.008298898E-1,1.311335759E0,5.320500668E0
8.225623833E0,6.322444596E0,3.855133599E-1,1.318116775E0,6.469880838E0
8.235683833E0,7.164151289E0,4.274443281E-1,1.009691059E0,7.247568447E0
8.245744833E0,7.348347353E0,5.089814115E-1,2.896087906E-1,7.371644603E0
8.255805833E0,6.271614751E0,5.979514754E-1,-4.729198784E-1,6.317780525E0
8.265865833E0,4.393600180E0,7.915551245E-1,-7.185655010E-1,4.521793719E0
8.275926833E0,2.998627603E0,7.716786844E-1,-5.885012054E-1,3.151759693E0
8.285987833E0,2.154531445E0,5.737703151E-1,-2.891936383E-1,2.248299598E0
8.296047833E0,2.078523781E0,5.746491516E-1,5.400926918E-2,2.157174021E0
8.306108833E0,2.983273984E0,8.199182135E-1,7.782892540E-1,3.190285834E0
8.316169833E0,3.651989340E0,1.026526655E0,1.569876538E0,4.105520121E0
8.326229833E0,3.583668426E0,8.108322251E-1,2.139493868E0,4.251771666E0
8.336290833E0,2.757183497E0,-4.027228850E-1,2.150499790E0,3.519786344E0
8.346351833E0,1.628082646E0,-1.923103620E0,1.458588529E0,2.911436266E0
8.356411833E0,8.586317512E-1,-3.703645690E0,1.096013796E0,3.956701420E0
8.366472833E0,2.778248969E-1,-5.402148986E0,1.366526165E0,5.579228809E0
8.376533833E0,-4.237158510E-1,-7.378096232E0,1.335098843E0,7.509882027E0
8.386593833E0,-9.141592500E-1,-9.219950452E0,1.125945693E0,9.333323480E0
8.396654833E0,-1.495782083E0,-1.017250983E1,3.730371559E-1,1.028865769E1
8.406715833E0,-3.256035777E0,-9.406942070E0,-1.881321463E0,1.013073040E1
8.416775833E0,-7.941222861E0,-5.354629249E0,-1.090095011E1,1.451088516E1
8.426837208E0,-8.702264875E0,-1.511694696E0,-1.060335256E1,1.380020726E1
8.436898208E0,-7.015412741E0,5.449780405E-2,-7.366535118E0,1.017274917E1
8.446958208E0,-5.632994721E0,3.678097451E-1,-4.063657588E0,6.955517704E0
8.457019208E0,-4.901720589E0,3.599452400E-1,-2.270833442E0,5.414158275E0
8.467080208E0,-4.702993025E0,6.455916649E-1,-2.018630751E0,5.158468969E0
8.477140208E0,-4.474791693E0,6.944463211E-1,-2.027845086E0,4.961670292E0
8.487201208E0,-4.298423004E0,3.467071438E-1,-2.097914610E0,4.795611732E0
8.497262208E0,-4.176470844E0,-1.806561595E-1,-1.995964605E0,4.632431333E0
8.507323208E0,-3.973241800E0,-8.080360866E-1,-1.630720618E0,4.370219955E0
8.517383208E0,-3.660330686E0,-1.362824001E0,-1.067603053E0,4.049084621E0
8.527444208E0,-3.125503412E0,-1.900388356E0,-3.228335470E-1,3.672120502E0
8.537505208E0,-2.406096643E0,-2.316214267E0,3.014859474E-1,3.353362993E0
8.547565208E0,-2.327038779E0,-2.693123449E0,9.718467101E-1,3.689513439E0
8.557626208E0,-2.597735481E0,-2.878185486E0,8.271133585E-1,3.964378618E0
8.567687208E0,-2.430249883E0,-2.252956164E0,-1.578299452E-1,3.317655236E0
8.577747208E0,-2.416331463E0,-1.328806069E0,-8.404245450E-1,2.882827904E0
8.587808208E0,-2.738524155E0,-5.985853136E-1,-9.857705386E-1,2.971457972E0
8.597869208E0,-3.097630904E0,1.112672514E-1,-9.019366689E-1,3.228186391E0
8.607929208E0,-3.512604876E0,8.245708430E-1,-7.613485546E-1,3.687541418E0
8.617990208E0,-3.822658456E0,1.452165363E0,-6.282103778E-1,4.137166928E0
8.628051208E0,-4.205223649E0,1.896780624E0,-1.889695846E-1,4.617076151E0
8.638111208E0,-4.530206925E0,2.298700687E0,4.648143218E-1,5.101259843E0
8.648172208E0,-4.488278881E0,2.616422013E0,1.012689146E0,5.293000167E0
8.658233208E0,-4.339181314E0,2.469796064E0,2.157311504E0,5.438968652E0
8.668293208E0,-4.019711670E0,1.874754748E0,2.835191494E0,5.264133174E0
8.678354208E0,-3.333105880E0,1.169509789E0,3.225759187E0,4.783604319E0
8.688415208E0,-2.568603776E0,6.373698950E-1,3.836506709E0,4.660767047E0
8.698475208E0,-1.904045205E0,3.258846241E-1,4.599730319E0,4.988898470E0
8.708536208E0,-1.184110286E0,1.862735796E-1,5.378575936E0,5.510525757E0
8.718597208E0,-1.022926524E-1,1.253467619E-1,6.013046781E0,6.015222955E0
8.728657208E0,9.841015240E-1,1.142382216E-1,6.156866067E0,6.236064941E0
8.738718208E0,1.926132039E0,-1.174530208E-2,6.164769164E0,6.458676445E0
8.748779208E0,2.900009633E0,-6.236932576E-2,5.711386002E0,6.405768953E0
8.758839208E0,3.736630418E0,2.306960464E-2,4.736434128E0,6.032971684E0
8.768900208E0,4.366431677E0,9.988740027E-2,3.593674766E0,5.655988102E0
8.778961208E0,4.523088817E0,2.427395564E-1,2.556583947E0,5.201286035E0
8.789021208E0,5.128519174E0,4.143149900E-1,7.664922041E-1,5.202006933E0
8.799082208E0,7.227638018E0,5.478887844E-1,-3.327803917E0,7.975789137E0
8.809143208E0,1.127110576E1,7.546387285E-1,-9.188369055E0,1.456136774E1
8.819203208E0,9.978351864E0,1.005078483E0,-9.019089239E0,1.348783375E1
8.829264208E0,5.808569650E0,1.135460867E0,-9.414540526E0,1.112035638E1
8.839325208E0,3.424679124E0,1.518106753E0,-7.005874178E0,7.944516865E0
8.849385208E0,2.441215312E0,1.687752020E0,-1.947615294E0,3.549823153E0
8.859446208E0,1.349186978E0,1.048269526E0,1.855334244E0,2.522189458E0
8.869507208E0,2.073096688E-1,6.176682866E-1,4.347590779E0,4.396138873E0
8.879568208E0,-1.033037091E0,3.764326340E-1,5.149384378E0,5.265455976E0
8.889628208E0,-1.514178301E0,3.626741356E-1,4.884830030E0,5.126971121E0
8.899689208E0,-1.487708540E0,6.876360691E-1,3.845314370E0,4.180019458E0
8.909750208E0,-1.440867957E0,1.261628578E0,2.671656566E0,3.287180547E0
8.919810208E0,-1.391718602E0,1.931811878E0,1.833713726E0,3.005209448E0
8.929871208E0,-1.132718085E0,2.155538043E0,1.336971706E0,2.777928699E0
8.939932208E0,-4.278488823E-1,2.135292644E0,1.024464781E0,2.406669364E0
8.949992208E0,6.705060661E-1,2.182957976E0,9.543889707E-1,2.475023681E0
8.960053208E0,1.649366950E0,2.077636174E0,1.125899427E0,2.881776002E0
8.970114208E0,2.257994418E0,2.049826232E0,1.441507643E0,3.373169230E0
8.980174208E0,2.761056401E0,1.937845035E0,1.819155328E0,3.832492914E0
8.990235208E0,3.264643171E0,1.854160269E0,2.176958733E0,4.339925652E0
9.000296208E0,3.867662720E0,1.622432774E0,2.468301516E0,4.866581490E0
9.010356208E0,4.357094551E0,1.280464214E0,2.785138743E0,5.327368895E0
9.020417208E0,4.493065996E0,9.592556083E-1,3.025519533E0,5.501052791E0
9.030478208E0,4.410409756E0,4.859375346E-1,3.074038559E0,5.397922060E0
9.040538208E0,4.264858525E0,-3.076740557E-1,3.138991184E0,5.304427134E0
9.050599208E0,3.986041355E0,-1.061813432E0,3.149835430E0,5.190128774E0
9.060660208E0,3.168780409E0,-1.537020156E0,2.831970263E0,4.519253900E0
9.070720208E0,2.009315552E0,-1.463256946E0,2.109610503E0,3.260203422E0
9.080781208E0,1.006494313E0,-1.283587797E0,1.157030149E0,1.999836794E0
9.090842208E0,4.594027238E-1,-7.262148285E-1,-2.856022199E0,2.982499228E0
9.100902208E0,4.997502659E-1,-1.182839102E-1,-6.562848190E0,6.582911041E0
9.110963208E0,1.185025229E0,-8.827611637E-1,-3.522709449E0,3.820082974E0
9.121024208E0,7.128771834E-1,-1.964758015E0,-1.512057077E0,2.579686907E0
9.131084208E0,-5.279480249E-2,-3.186446602E0,-1.745122561E0,3.633411894E0
9.141145208E0,-6.277782686E-1,-5.222066438E0,-2.552100302E0,5.846135424E0
9.151206208E0,-1.558914032E0,-7.364207341E0,-2.771035843E0,8.021246933E0
9.161266208E0,-1.868340937E0,-8.887327496E0,-1.819883453E0,9.262141419E0
9.171327208E0,-1.814483403E0,-1.009732282E1,-6.110129857E-1,1.027723772E1
9.181388208E0,-1.058136410E0,-1.084671367E1,-7.410603243E-1,1.092337039E1
9.191449208E0,4.242561337E-1,-1.063919365E1,-2.196200458E0,1.087178602E1
9.201509208E0,2.706022992E0,-9.088390439E0,-4.055855356E0,1.031364940E1
9.211570208E0,5.034063837E0,-6.107138422E0,-5.644669272E0,9.721174291E0
9.221631208E0,6.429438118E0,-3.238193291E0,-6.770786873E0,9.882667918E0
9.231691208E0,6.473406256E0,-7.878017968E-1,-8.218931690E0,1.049173286E1
9.241752208E0,5.237962679E0,9.677019113E-1,-8.621626509E0,1.013435463E1
9.251813208E0,3.489117487E0,2.082913286E0,-7.691953719E0,8.699345987E0
9.261873208E0,1.548184538E0,2.385552889E0,-5.806356479E0,6.465408998E0
9.271934208E0,-4.941604739E-1,2.167041271E0,-3.546015866E0,4.185031776E0
9.281995208E0,-2.169850273E0,1.810508466E0,-1.336164498E0,3.125944126E0
9.292055208E0,-2.951081261E0,2.042775074E0,4.857442841E-1,3.621844575E0
9.302116208E0,-3.681946088E0,2.587382986E0,2.057612676E0,4.948236821E0
9.312177208E0,-3.969564779E0,3.330245422E0,3.101319913E0,6.038722076E0
9.322237208E0,-3.719571751E0,4.179545310E0,3.514649062E0,6.607311937E0
9.332298208E0,-3.404881329E0,4.619959931E0,3.597762847E0,6.773562145E0
9.342359208E0,-2.716640950E0,5.297713621E0,3.237962326E0,6.777190250E0
9.352419208E0,-2.089526779E0,4.991491429E0,2.104708490E0,5.806109427E0
9.362480208E0,-1.994244938E0,2.675008775E0,4.251169901E-1,3.363541181E0
9.372541208E0,-2.478866265E0,9.097805625E-1,-1.102042860E0,2.861289412E0
9.382601208E0,-2.940474705E0,7.649567252E-1,-2.824296961E0,4.148277185E0
9.392662208E0,-3.219265269E0,1.459835156E0,-5.232754564E0,6.314784864E0
9.402723208E0,-2.620574998E0,1.917034795E0,-6.698780751E0,7.444199035E0
9.412783208E0,-1.800431374E0,1.709104298E0,-6.068070835E0,6.556224088E0
9.422844708E0,-1.645993545E0,1.089021696E0,-3.987138001E0,4.448879909E0
9.432905708E0,-1.367838280E0,6.380581123E-1,-1.602625916E0,2.201478944E0
9.442965708E0,-9.701565725E-1,6.689939761E-1,2.678960323E-1,1.208521824E0
9.453026708E0,-3.773500621E-1,9.130298603E-1,1.028870511E0,1.426390944E0
9.463087708E0,4.353418699E-1,1.440995427E0,1.346747666E0,2.019831587E0
9.473147708E0,1.064442632E0,1.766368420E0,1.502766436E0,2.551744986E0
9.483208708E0,1.839515041E0,1.798649728E0,1.362484862E0,2.911240531E0
9.493269708E0,2.929919603E0,1.666989727E0,1.104934309E0,3.547416448E0
9.503329708E0,4.211310016E0,1.449076864E0,9.089467496E-1,4.545452673E0
9.513390708E0,5.542120804E0,1.225468812E0,8.761179958E-1,5.743209865E0
9.523451708E0,6.921083704E0,8.835844517E-1,9.732314770E-1,7.044806643E0
9.533512708E0,8.427256290E0,4.185817033E-1,1.264148582E0,8.531818731E0
9.543572708E0,9.717011145E0,9.839285195E-2,1.641695257E0,9.855209285E0
9.553633708E0,1.043865754E1,6.273594618E-2,1.996942844E0,1.062813661E1
9.563694708E0,1.009826539E1,5.979684323E-1,1.733902339E0,1.026347639E1
9.573754708E0,6.894027468E0,8.986936569E-1,8.771121687E-1,7.007466787E0
9.583815708E0,1.988752649E0,5.119892192E-1,5.406934932E-1,2.123586474E0
9.593876708E0,-8.570991960E-1,5.342782205E-1,4.845874125E-1,1.120221946E0
9.603936708E0,-2.379691055E0,9.939161485E-1,4.251294154E-1,2.613720308E0
9.613997708E0,-3.085804618E0,1.399710576E0,6.136173356E-1,3.443531047E0
9.624058708E0,-2.460775272E0,7.884274489E-1,6.801107025E-1,2.671999878E0
9.634118708E0,-9.058439246E-1,-5.608812976E-1,6.270764565E-1,1.236270977E0
9.644179708E0,1.650376618E-2,-1.758643078E0,3.882314381E-1,1.801061215E0
9.654240708E0,8.616550541E-1,-2.915264434E0,3.854312065E-1,3.064273710E0
9.664300708E0,2.774136622E0,-4.201103409E0,1.081765594E0,5.149302928E0
9.674361708E0,4.904726935E0,-6.163600890E0,1.092808937E0,7.952392949E0
9.684422708E0,6.781356300E0,-8.651636174E0,-3.033253060E0,1.140343044E1
9.694482708E0,2.860449711E0,-9.875515712E0,-6.523128054E0,1.217617275E1
9.704543708E0,-3.321537749E0,-6.451673325E0,-4.617038662E0,8.600799249E0
9.714604708E0,-4.341115865E0,-3.164087434E0,-3.019500409E0,6.162314416E0
9.724664708E0,-4.509304883E0,-1.928964869E0,-1.465078062E0,5.118709771E0
9.734725708E0,-4.897632508E0,-1.611607239E0,-5.540152046E-1,5.185654725E0
9.744786708E0,-5.691728833E0,-1.183479372E0,-5.511967005E-1,5.839539222E0
9.754846708E0,-6.304018850E0,-7.813482249E-1,-7.378171661E-1,6.394961523E0
9.764907708E0,-6.410804211E0,-3.650942981E-1,-6.385172649E-1,6.452860511E0
9.774968708E0,-6.396577935E0,-2.123767197E-2,-3.570052600E-1,6.406567964E0
9.785029708E0,-6.408136711E0,1.058234936E-1,1.683997377E-1,6.411222441E0
9.795089708E0,-6.041135051E0,3.354898453E-2,7.805845054E-1,6.091448958E0
9.805150708E0,-5.218519517E0,-1.132798630E-1,1.606887951E0,5.461489464E0
9.815211708E0,-4.219486178E0,-3.710064179E-1,2.738424168E0,5.043875126E0
9.825271708E0,-3.459289963E0,-7.791122496E-1,4.273023577E0,5.552696051E0
9.835332708E0,-2.921514523E0,-1.367309985E0,5.579811371E0,6.445081740E0
9.845393708E0,-3.284309111E0,-1.671132479E0,5.802855166E0,6.874045256E0
9.855453708E0,-3.939092599E0,-1.402426608E0,5.094311793E0,6.590543493E0
9.865514708E0,-4.188408519E0,-9.296143180E-1,4.037628708E0,5.891467923E0
9.875575708E0,-4.154774165E0,-3.155607802E-1,2.992538313E0,5.130010967E0
9.885635708E0,-3.830993369E0,1.989129210E-1,2.147872928E0,4.396525294E0
9.895696708E0,-3.232300467E0,5.021027470E-1,1.701188922E0,3.686992979E0
9.905757708E0,-2.423421943E0,6.087506980E-1,1.453106765E0,2.890513898E0
9.915817708E0,-1.420765230E0,6.171221566E-1,1.344114080E0,2.050867196E0
9.925878708E0,-2.228382656E-1,5.714752829E-1,1.260564970E0,1.401879073E0
9.935939708E0,1.148466683E0,5.112974936E-1,1.207183399E0,1.742897762E0
9.945999708E0,2.523444268E0,4.332862812E-1,1.256813396E0,2.852207546E0
9.956060708E0,4.089392062E0,4.109680438E-1,8.709661603E-1,4.201262217E0
9.966121708E0,6.669661033E0,5.205431110E-1,-2.221244960E0,7.049061823E0
9.976181708E0,7.152440486E0,1.174450686E0,-3.588456711E0,8.087877403E0
9.986242708E0,4.956048532E0,1.622757295E0,-2.147384686E0,5.639771208E0
9.996303708E0,3.577747536E0,1.764468659E0,-1.560097947E0,4.283401999E0
1.000636371E1,1.961453753E0,2.015981378E0,-2.556298603E0,3.800808373E0
1.001642471E1,7.933182062E-1,1.955030002E0,-4.054003251E0,4.570168316E0
1.002648571E1,9.062605387E-1,1.513609074E0,-3.073305318E0,3.543659996E0
1.003654571E1,1.358855788E0,1.481482133E0,-1.261373055E0,2.373255221E0
1.004660671E1,1.414650504E0,1.545864655E0,4.618715644E-2,2.095964416E0
1.005666771E1,1.156691084E0,1.415559454E0,8.188434952E-1,2.003059535E0
1.006672771E1,5.501110187E-1,1.161761059E0,1.283297775E0,1.816360115E0
1.007678871E1,4.003778592E-2,9.595204872E-1,1.729903429E0,1.978597600E0
1.008684971E1,-3.513439858E-1,8.917237759E-1,2.234760214E0,2.431618207E0
1.009690971E1,-4.427384515E-1,8.565931195E-1,2.562840468E0,2.738233075E0
1.010697071E1,-3.243894911E-1,7.843700659E-1,2.898063680E0,3.019807616E0
1.011703171E1,1.216519064E-1,6.375002879E-1,3.376958828E0,3.438758021E0
1.012709271E1,6.079674634E-1,3.979199821E-1,4.310980192E0,4.371786245E0
1.013715271E1,9.006669460E-1,8.699253559E-2,5.634039034E0,5.706239084E0
1.014721371E1,1.107402126E0,-2.403363508E-1,6.720553443E0,6.815419255E0
1.015727471E1,1.496290791E0,-6.665018928E-1,7.377474089E0,7.557131389E0
1.016733471E1,1.798005657E0,-6.756369978E-1,7.737462598E0,7.972304382E0
1.017739571E1,1.926308040E0,-4.197020298E-1,7.672827476E0,7.922063742E0
1.018745671E1,1.779573918E0,1.795159525E-1,6.986833305E0,7.212138999E0
1.019751671E1,1.456519638E0,9.414028895E-1,5.607758138E0,5.869807509E0
1.020757771E1,1.245773707E0,1.510536947E0,4.456708009E0,4.867845548E0
1.021763871E1,1.086054965E0,1.952351393E0,3.751057838E0,4.365962237E0
1.022769871E1,9.456962076E-1,2.312413577E0,3.334922025E0,4.166929659E0
1.023775971E1,8.364599866E-1,2.513389980E0,3.088232675E0,4.068657709E0
1.024782071E1,9.087974994E-1,2.137930908E0,3.554317743E0,4.246155447E0
1.025788071E1,9.247313082E-1,8.602043599E-1,4.282320650E0,4.464678004E0
1.026794171E1,6.227385534E-1,-6.316308528E-1,3.408941928E0,3.522448851E0
1.027800271E1,1.124980903E-1,-2.037164671E0,2.931210376E0,3.571370883E0
1.028806271E1,-6.457184033E-1,-3.174834616E0,3.081766824E0,4.471444269E0
1.029812371E1,-1.407782511E0,-4.129596639E0,3.015086346E0,5.303410758E0
1.030818471E1,-2.031176099E0,-4.918877197E0,2.761209598E0,5.995440573E0
1.031824471E1,-2.457073400E0,-5.518299247E0,2.247751558E0,6.445248121E0
1.032830571E1,-2.893901924E0,-6.080796130E0,1.672001376E0,6.938756266E0
1.033836671E1,-3.572158767E0,-6.558369808E0,1.506106512E0,7.618457168E0
1.034842671E1,-4.374866286E0,-6.939684282E0,1.680268169E0,8.373886438E0
1.035848771E1,-5.275766097E0,-6.855817668E0,2.211190088E0,8.928902811E0
1.036854871E1,-6.159584438E0,-5.836741535E0,2.199797373E0,8.766250092E0
1.037860871E1,-6.646761582E0,-4.196086498E0,1.244979216E0,7.958426646E0
1.038866971E1,-6.666451496E0,-2.944232710E0,3.764852589E-1,7.297384665E0
1.039873071E1,-6.169178549E0,-1.963932388E0,-3.653544992E-1,6.484541488E0
1.040879171E1,-5.572539189E0,-1.102582558E0,-9.034842807E-1,5.751970545E0
1.041885171E1,-4.863006467E0,-3.795486152E-1,-1.088707700E0,4.997816874E0
1.042891246E1,-4.008664525E0,1.560124844E-1,-1.103184968E0,4.160618733E0
1.043897346E1,-2.946233920E0,3.784259498E-1,-1.072665572E0,3.158181745E0
1.044903346E1,-1.855866487E0,5.165295821E-1,-1.102081452E0,2.219375307E0
1.045909446E1,-6.833939141E-1,6.116304517E-1,-8.318114501E-1,1.238155620E0
1.046915546E1,5.821914750E-1,6.075467563E-1,-7.525717378E-1,1.128903980E0
1.047921546E1,2.003006991E0,5.474935126E-1,-2.185472572E0,3.014643679E0
1.048927646E1,1.937395092E0,2.327852565E-1,-1.711539371E0,2.595583891E0
1.049933746E1,1.217589104E0,-2.337079471E-1,-3.942321432E-1,1.300984863E0
1.050939746E1,5.312683663E-1,-3.872827274E-1,1.750673908E-1,6.803547451E-1
1.051945846E1,-4.307512209E-1,-2.572751498E-1,1.039558783E0,1.154304804E0
1.052951946E1,-1.198165823E0,-6.465090930E-2,2.035514002E0,2.362858085E0
1.053957946E1,-1.513457631E0,-4.174923670E-1,2.313112319E0,2.795593404E0
1.054964046E1,-1.704725610E0,-1.342456394E0,1.601963865E0,2.697140486E0
1.055970146E1,-2.015078568E0,-1.874677565E0,6.448781584E-1,2.826804812E0
1.056976146E1,-2.434785275E0,-1.518388588E0,-1.526713854E-1,2.873498181E0
1.057982246E1,-3.270804967E0,-7.368643624E-1,-6.345667398E-1,3.412302619E0
1.058988346E1,-3.902238184E0,2.461677790E-3,-8.842329079E-1,4.001166922E0
1.059994346E1,-4.105929157E0,4.302036291E-1,-6.106776479E-1,4.173326802E0
1.061000446E1,-4.069696885E0,7.124475592E-1,-1.293105894E-1,4.133610467E0
1.062006546E1,-3.669888837E0,8.281230265E-1,2.326858538E-1,3.769352004E0
1.063012546E1,-2.892041340E0,9.915088499E-1,6.731542701E-1,3.130515865E0
1.064018646E1,-1.985820855E0,1.368319799E0,1.126151954E0,2.661578810E0
1.065024746E1,-9.258507577E-1,1.592749384E0,1.493163554E0,2.371410472E0
1.066030746E1,1.884198001E-1,1.471716698E0,1.769365556E0,2.309135451E0
1.067036846E1,1.213911790E0,8.816577941E-1,1.900374908E0,2.421224296E0
1.068042946E1,2.000660796E0,1.876336420E-1,1.861335973E0,2.739054875E0
1.069049046E1,1.862488751E0,-4.209352076E-2,1.616220692E0,2.466334434E0
1.070055046E1,1.625932333E-1,8.185277456E-1,1.194476376E0,1.457119777E0
1.071061146E1,-1.621769700E0,1.979117607E0,8.547943698E-1,2.697724389E0
1.072067246E1,-2.611160104E0,2.528664077E0,7.478505497E-1,3.711007888E0
1.073073246E1,-3.303707834E0,2.834684540E0,6.637507048E-1,4.403463057E0
1.074079346E1,-3.744095851E0,2.923626537E0,6.371541327E-1,4.792891743E0
1.075085446E1,-4.110359300E0,3.009484713E0,7.560765588E-1,5.150116851E0
1.076091446E1,-4.407336752E0,3.076255823E0,9.021569628E-1,5.449940762E0
1.077097546E1,-4.335038561E0,3.048648779E0,9.962327423E-1,5.392522451E0
1.078103646E1,-3.692855823E0,1.984616328E0,1.311284303E0,4.392647564E0
1.079109646E1,-2.650476489E0,-2.894605637E-1,1.847144195E0,3.243571291E0
1.080115746E1,-1.286957255E0,-2.946590307E0,2.903559478E0,4.332356294E0
1.081121846E1,2.224929875E-1,-5.579725417E0,4.283399461E0,7.037780176E0
1.082127846E1,9.197443642E-1,-7.514149831E0,4.866498424E0,8.999510225E0
1.083133946E1,3.046883212E-1,-7.952124410E0,4.158467851E0,8.978973910E0
1.084140046E1,-7.860939713E-1,-6.394916741E0,2.790027015E0,7.021193247E0
1.085146046E1,-1.878090292E0,-3.868849413E0,1.556351051E0,4.573559611E0
1.086152146E1,-2.696131842E0,-2.110108101E0,5.756834875E-1,3.471756700E0
1.087158246E1,-3.178103794E0,-5.805630255E-1,-5.346577048E-2,3.231138459E0
1.088164246E1,-3.281358606E0,7.590662402E-1,-4.176741423E-1,3.393810182E0
1.089170346E1,-3.134176587E0,1.815067540E0,-6.005915663E-1,3.671272706E0
1.090176446E1,-2.766661541E0,2.540780677E0,-6.082753193E-1,3.805257074E0
1.091182446E1,-2.246330684E0,2.875212176E0,-5.437079521E-1,3.688965294E0
1.092188546E1,-1.535533940E0,2.751170513E0,-4.271987816E-1,3.179512930E0
1.093194646E1,-7.753124365E-1,2.330577368E0,-1.670567054E-1,2.461830251E0
1.094200746E1,-8.825465709E-2,1.595430332E0,3.001551211E-1,1.625816695E0
1.095206746E1,5.724834891E-1,6.566972816E-1,9.545649719E-1,1.292355582E0
1.096212846E1,1.382565078E0,-2.946014357E-1,1.829506069E0,2.312005333E0
1.097218946E1,2.084498466E0,-1.069810669E0,2.573073095E0,3.479990499E0
1.098224946E1,2.567466785E0,-1.727431226E0,3.159573383E0,4.422534149E0
1.099231046E1,2.521380785E0,-2.203431417E0,3.434666169E0,4.796811729E0
1.100237146E1,1.846791316E0,-2.255589750E0,3.645838362E0,4.668025348E0
1.101243146E1,1.059897299E0,-1.780699945E0,3.825895182E0,4.351062919E0
1.102249246E1,5.768469737E-1,-9.362164092E-1,3.405571593E0,3.578710867E0
1.103255346E1,2.170506915E-1,-1.108977073E-1,2.766100209E0,2.776818264E0
1.104261346E1,-1.478274058E-1,5.319603842E-1,2.316926458E0,2.381802469E0
1.105267446E1,-5.153111686E-1,1.087048845E0,2.027513841E0,2.357548127E0
1.106273546E1,-8.779053435E-1,1.439297395E0,1.844555633E0,2.498935827E0
1.107279546E1,-1.251905390E0,1.506444481E0,1.790786977E0,2.653970624E0
1.108285646E1,-1.494388253E0,1.366718831E0,1.835448010E0,2.733127515E0
1.109291746E1,-1.613478494E0,1.153575541E0,2.049692330E0,2.852242632E0
1.110297746E1,-1.686015690E0,9.490902239E-1,2.263902737E0,2.978032364E0
1.111303846E1,-1.827005654E0,7.520390564E-1,2.630907905E0,3.290165468E0
1.112309946E1,-2.086434772E0,4.276729542E-1,2.874340357E0,3.577421795E0
1.113315946E1,-2.557303739E0,6.273945451E-2,2.771340483E0,3.771480708E0
1.114322046E1,-2.955314938E0,-1.121729851E-1,2.635419617E0,3.961301013E0
1.115328146E1,-2.977501028E0,-1.476071119E-1,2.507005405E0,3.895173467E0
1.116334146E1,-2.666766247E0,-7.618161857E-2,2.533784484E0,3.679335493E0
1.117340246E1,-2.112389977E0,1.331785226E-1,2.600878944E0,3.353281858E0
1.118346346E1,-1.556887680E0,2.656074321E-1,2.618922282E0,3.058300259E0
1.119352346E1,-1.209844613E0,1.870401496E-1,2.587411637E0,2.862412791E0
1.120358446E1,-9.416757352E-1,-3.410797834E-2,2.418699585E0,2.595770450E0
1.121364546E1,-5.533055719E-1,-3.662035149E-1,1.832737241E0,1.949147984E0
1.122370546E1,-5.518886454E-1,-4.056675428E-1,7.047064304E-3,6.849794838E-1
1.123376646E1,-1.504272240E0,-3.397349238E-1,-4.055425293E0,4.338747412E0
1.124382746E1,-1.037066042E0,-1.493723863E-1,-1.884923640E0,2.156560970E0
1.125388846E1,3.367839803E-1,1.532724792E-1,1.805006236E0,1.842542649E0
1.126394846E1,6.721286684E-1,3.500546747E-1,3.454309305E0,3.536459811E0
1.127400946E1,3.964942116E-1,5.828516257E-1,4.567819140E0,4.621893051E0
1.128407046E1,1.505301350E-1,8.903765774E-1,5.276270127E0,5.352985730E0
1.129413046E1,1.809918628E-1,1.258248303E0,5.696575005E0,5.836686871E0
1.130419146E1,4.747219171E-1,1.495101467E0,5.718868099E0,5.930104690E0
1.131425246E1,9.227571420E-1,1.481555223E0,5.426176364E0,5.699989172E0
1.132431246E1,1.213872687E0,1.225160079E0,5.202935518E0,5.481335797E0
1.133437346E1,1.329164504E0,7.587826502E-1,5.162632999E0,5.384719944E0
1.134443446E1,1.496337569E0,3.035821742E-1,5.097420173E0,5.321172866E0
1.135449446E1,1.651375322E0,1.456892252E-2,4.898998418E0,5.169858625E0
1.136455546E1,1.837867149E0,-6.911116540E-2,4.572377629E0,4.928404326E0
1.137461646E1,2.077358724E0,-1.663883686E-2,4.228546146E0,4.711294793E0
1.138467646E1,2.111401798E0,-3.706316113E-2,3.966741743E0,4.493821457E0
1.139473746E1,2.075539947E0,-3.437999082E-1,3.902975518E0,4.433878927E0
1.140479846E1,2.095295058E0,-1.072115057E0,3.805688374E0,4.474701786E0
1.141485846E1,2.520438799E0,-1.850507514E0,2.998228823E0,4.332016375E0
1.142491946E1,4.406341848E0,-2.243402984E0,-2.400434053E-1,4.950386476E0
1.143498046E1,5.259164683E0,-2.431052998E0,-1.546617776E0,5.996737311E0
1.144504046E1,4.016064469E0,-2.881237732E0,9.808229171E-2,4.943675234E0
1.145510146E1,2.831464478E0,-3.223631385E0,8.961466098E-1,4.383157440E0
1.146516246E1,1.751787656E0,-3.341406587E0,6.496677589E-1,3.828292854E0
1.147522246E1,4.785492852E-1,-3.027821581E0,4.800330162E-2,3.065781673E0
1.148528346E1,-7.809243017E-1,-2.817029457E0,-6.803820133E-3,2.923276247E0
1.149534446E1,-1.801935424E0,-2.723661118E0,7.436196506E-1,3.349368797E0
1.150540546E1,-2.462556041E0,-2.730617550E0,1.902350682E0,4.139974949E0
1.151546546E1,-3.027691773E0,-3.005969952E0,2.503535083E0,4.946762652E0
1.152552646E1,-3.485695404E0,-3.098733689E0,2.519428400E0,5.300919014E0
1.153558746E1,-3.816893393E0,-3.143559614E0,2.182500724E0,5.404993213E0
1.154564746E1,-4.000617295E0,-3.050312896E0,1.648610174E0,5.294078108E0
1.155570846E1,-3.781931137E0,-2.615196437E0,9.164486542E-1,4.688510815E0
1.156576946E1,-3.103997353E0,-1.855473554E0,-1.482159533E-2,3.616324288E0
1.157582946E1,-2.354217368E0,-1.095802127E0,-9.916655552E-1,2.779662262E0
1.158589046E1,-1.715475132E0,-4.104616749E-1,-1.955919948E0,2.633810274E0
1.159595146E1,-1.109889970E0,1.776670629E-1,-2.657314516E0,2.885262859E0
1.160601146E1,-4.316917455E-1,7.239022547E-1,-2.776064449E0,2.901193903E0
1.161607246E1,2.103100213E-1,1.166088583E0,-2.469950430E0,2.739461264E0
1.162613346E1,8.818677092E-1,1.477945737E0,-2.022560811E0,2.655704519E0
1.163619346E1,1.728385638E0,1.809453628E0,-1.452601127E0,2.893352619E0
1.164625446E1,2.433568178E0,2.108142852E0,-8.919133718E-1,3.340962410E0
1.165631546E1,2.495694259E0,2.273178760E0,-2.959633984E-1,3.388720384E0
1.166637546E1,1.938242207E0,1.970681244E0,4.330463992E-1,2.797837844E0
1.167643646E1,8.694182561E-1,1.244261763E0,1.379788381E0,2.051314558E0
1.168649746E1,-5.129072320E-1,4.336768752E-1,2.307663737E0,2.403427009E0
1.169655746E1,-1.764159341E0,-4.866403699E-2,2.670745570E0,3.201172952E0
1.170661846E1,-2.750366521E0,-2.590924644E-1,2.808521174E0,3.939471549E0
1.171667946E1,-3.653153229E0,-3.081851023E-1,2.881734161E0,4.663142539E0
1.172673946E1,-4.386069551E0,-3.110151547E-1,2.841656175E0,5.235393620E0
1.173680046E1,-4.878807690E0,-2.709359998E-1,2.686774542E0,5.576282654E0
1.174686146E1,-5.387910431E0,-2.385734153E-1,2.314680542E0,5.868921715E0
1.175692246E1,-5.762038677E0,-1.360863429E-1,1.841030785E0,6.050537461E0
1.176698246E1,-5.895275087E0,-9.837355614E-3,1.341626090E0,6.046017342E0
1.177704346E1,-5.679636791E0,1.935235423E-1,8.541618472E-1,5.746765864E0
1.178710446E1,-5.053294744E0,5.564871150E-1,4.263579154E-1,5.101690578E0
1.179716446E1,-3.318063333E0,9.455602598E-1,-1.222047606E0,3.660195191E0
1.180722546E1,-3.432084623E-1,8.208356416E-1,-4.280441355E0,4.371926508E0
1.181728646E1,1.080181291E0,4.178969944E-1,-3.798880168E0,3.971513572E0
1.182734646E1,1.778542615E0,1.741932321E-1,-3.194942021E0,3.660766537E0
1.183740746E1,1.888391916E0,2.055378163E-1,-2.282445427E0,2.969482607E0
1.184746846E1,1.092303738E0,3.401331192E-1,-9.871281159E-1,1.511039348E0
1.185752846E1,-2.409684348E-1,2.539235258E-1,1.991093874E-1,4.027250820E-1
1.186758946E1,-1.474908985E0,-1.007393396E-1,1.118216844E0,1.853621816E0
1.187765046E1,-2.244218962E0,-5.144438803E-1,1.559825467E0,2.781047778E0
1.188771046E1,-2.246132171E0,-8.044499892E-1,1.708019347E0,2.934208514E0
1.189777146E1,-1.802624665E0,-8.639582723E-1,1.588183001E0,2.553077520E0
1.190783246E1,-1.354691986E0,-6.031964278E-1,8.799618092E-1,1.724345990E0
1.191789246E1,-1.066521610E0,2.520348752E-1,-8.261238635E-2,1.099006246E0
1.192795346E1,-7.478357854E-1,1.324094968E0,-5.838392204E-1,1.628911932E0
1.193801446E1,-3.642312491E-1,2.152826689E0,-5.808893001E-1,2.259371492E0
1.194807446E1,8.055942893E-2,2.713913224E0,-1.858426398E-1,2.721461427E0
1.195813546E1,5.591218704E-1,2.890946449E0,3.748179254E-1,2.968278477E0
1.196819646E1,1.201952772E0,2.910759739E0,8.059477535E-1,3.250656012E0
1.197825646E1,1.846515327E0,2.845472068E0,1.229622674E0,3.608088423E0
1.198831746E1,2.468670475E0,2.773194636E0,1.804648386E0,4.128159178E0
1.199837846E1,2.896031480E0,2.609705901E0,2.306000643E0,4.529371059E0
1.200843846E1,3.167404559E0,2.114968892E0,2.838222983E0,4.749847866E0
1.201849946E1,3.480750122E0,1.389722947E0,3.458962519E0,5.100134605E0
1.202856046E1,3.779157802E0,5.850115871E-1,3.867761246E0,5.439103723E0
1.203862146E1,3.394567133E0,-5.414281958E-1,3.989285098E0,5.265987667E0
1.204868146E1,2.434459878E0,-2.522991108E0,4.128427781E0,5.416271316E0
1.205874246E1,1.917943452E0,-5.261707052E0,4.409264579E0,7.127810485E0
1.206880346E1,2.269207039E0,-7.759614775E0,4.686403305E0,9.344693573E0
1.207886346E1,2.017762732E0,-9.410900050E0,4.347536108E0,1.056113045E1
1.208892446E1,-1.409383625E-2,-9.253142172E0,3.450042299E0,9.875405336E0
1.209898546E1,-2.924942453E0,-6.244913440E0,1.894760996E0,7.151527911E0
1.210904546E1,-6.679096684E0,-2.343351780E0,-4.311554097E0,8.288011149E0
1.211910646E1,-9.355101240E0,2.931741303E-1,-1.137328936E1,1.472941211E1
1.212916746E1,-8.975851418E0,1.248385220E0,-1.172943508E1,1.482241618E1
1.213922746E1,-6.580796803E0,7.361083174E-1,-7.260839093E0,9.826928633E0
1.214928846E1,-4.117579149E0,1.396426195E-1,-3.356274303E0,5.313994289E0
1.215934946E1,-3.033848307E0,-3.926843852E-1,-1.466651401E0,3.392565829E0
1.216940946E1,-2.578709811E0,-7.605853468E-1,-1.019152293E0,2.875222731E0
1.217947046E1,-2.030680255E0,-8.715561444E-1,-6.929013406E-1,2.315898244E0
1.218953146E1,-1.379651118E0,-7.603350860E-1,-1.852105558E-4,1.575292571E0
1.219959146E1,-7.079642066E-1,-5.555422050E-1,7.040247913E-1,1.142581011E0
1.220965246E1,-2.429825082E-1,-1.963027239E-1,1.143404456E0,1.185305449E0
1.221971346E1,-5.692175268E-1,1.889907807E-1,1.455517572E0,1.574248236E0
1.222977346E1,-1.108699915E0,5.321574354E-1,1.590628599E0,2.010598512E0
1.223983446E1,-1.440084431E0,7.567121512E-1,1.508105090E0,2.218296060E0
1.224989546E1,-1.796750552E0,8.696213007E-1,1.406052466E0,2.441625952E0
1.225995646E1,-1.825594428E0,8.941725898E-1,1.459130566E0,2.502279290E0
1.227001646E1,-1.550002729E0,9.551964712E-1,1.671664576E0,2.471714226E0
1.228007746E1,-1.220271807E0,9.740607584E-1,1.822329197E0,2.399737766E0
1.229013846E1,-1.022530522E0,9.027498704E-1,1.761937400E0,2.228216640E0
1.230019846E1,-1.027922093E0,7.622278297E-1,1.717841792E0,2.142100725E0
1.231025946E1,-1.217348053E0,4.977880865E-1,1.792525354E0,2.223258061E0
1.232032046E1,-1.467392828E0,9.768709302E-2,1.731528955E0,2.271778378E0
1.233038046E1,-1.588035944E0,-2.882478511E-1,1.646674161E0,2.305749504E0
1.234044146E1,-1.600965307E0,-6.368103164E-1,1.729777129E0,2.441463948E0
1.235050246E1,-1.589677988E0,-8.481199193E-1,1.795823768E0,2.543888069E0
1.236056246E1,-1.590119306E0,-8.148516011E-1,1.810672188E0,2.543815306E0
1.237062346E1,-1.683306528E0,-5.751695538E-1,1.802470883E0,2.532437989E0
1.238068446E1,-1.771807938E0,-2.014166987E-1,1.714469118E0,2.473717125E0
1.239074446E1,-1.814799884E0,2.135730600E-1,1.608698834E0,2.434548009E0
1.240080546E1,-1.848336881E0,5.761571485E-1,1.634659302E0,2.533854242E0
1.241086646E1,-1.749568784E0,8.496325940E-1,1.825370919E0,2.667366766E0
1.242092646E1,-1.635149153E0,9.382781374E-1,1.520988261E0,2.422288980E0
1.243098708E1,-1.487764527E0,9.780555761E-1,8.550804448E-1,1.975145201E0
1.244104808E1,-1.290955873E0,9.518571264E-1,3.232258952E-1,1.636176651E0
1.245110808E1,-1.103147399E0,9.227344841E-1,6.620568395E-2,1.439707021E0
1.246116908E1,-7.888070793E-1,1.035427871E0,8.394905984E-2,1.304367636E0
1.247123008E1,-3.095137359E-1,1.059259953E0,2.378097324E-1,1.128886119E0
1.248129008E1,1.316608047E-1,9.833280104E-1,4.158837980E-1,1.075745266E0
1.249135108E1,4.564222518E-1,6.944966072E-1,5.163015407E-1,9.783731856E-1
1.250141208E1,7.234852751E-1,2.397604001E-1,2.920882658E-1,8.162300826E-1
1.251147308E1,7.779828599E-1,-2.524710774E-2,-2.136093128E-1,8.071701712E-1
1.252153308E1,5.863203402E-1,-1.396385264E-1,-6.149499160E-1,8.610655367E-1
1.253159408E1,3.242460881E-1,-1.935510242E-1,-8.552646321E-1,9.349198445E-1
1.254165508E1,1.771295576E-1,-3.013730961E-1,-9.567138237E-1,1.018578403E0
1.255171508E1,1.839928731E-1,-3.438016623E-1,-8.565767473E-1,9.411570987E-1
1.256177608E1,3.489764482E-1,-3.274844223E-1,-5.878299085E-1,7.580069984E-1
1.257183708E1,6.035222639E-1,-2.063359612E-1,-1.319523249E-1,6.513256236E-1
1.258189708E1,9.414727637E-1,-2.051963389E-2,4.226402557E-1,1.032190295E0
1.259195808E1,1.323633623E0,2.430558908E-1,9.123387194E-1,1.625867175E0
1.260201908E1,1.624141915E0,5.093427694E-1,1.356358734E0,2.176459518E0
1.261207908E1,1.872791984E0,7.734585768E-1,1.829972677E0,2.730272511E0
1.262214008E1,2.097211483E0,1.149756725E0,2.239775956E0,3.276710677E0
1.263220108E1,2.198514932E0,1.518365200E0,2.676587523E0,3.781933574E0
1.264226108E1,2.121999584E0,1.667784364E0,3.317831783E0,4.276960914E0
1.265232208E1,1.982461337E0,1.670343690E0,3.973031008E0,4.743962098E0
1.266238308E1,1.930692282E0,1.497193016E0,4.591682796E0,5.201222022E0
1.267244308E1,1.969093287E0,1.086847116E0,5.285017562E0,5.743690073E0
1.268250408E1,2.036496480E0,5.021536177E-1,5.953043239E0,6.311750944E0
1.269256508E1,2.129765125E0,4.670054197E-2,6.246796829E0,6.600041746E0
1.270262508E1,2.005748020E0,-2.391452730E-1,6.199485837E0,6.520263816E0
1.271268608E1,1.603932623E0,-3.887012619E-1,5.893694000E0,6.120401743E0
1.272274708E1,1.190907382E0,-4.663230497E-1,5.459769788E0,5.607566648E0
1.273280808E1,1.052196882E0,-4.971051317E-1,4.947924410E0,5.082931020E0
1.274286808E1,9.718345772E-1,-4.319232953E-1,4.289643703E0,4.419509393E0
1.275292908E1,9.059491745E-1,-1.348122346E-1,3.505081848E0,3.622777526E0
1.276299008E1,7.535188405E-1,3.481215852E-1,2.932145931E0,3.047369200E0
1.277305008E1,3.790774027E-1,7.093578905E-1,2.562072144E0,2.685349505E0
1.278311108E1,9.868747853E-2,9.065283412E-1,2.327093596E0,2.499379415E0
1.279317208E1,8.176709823E-2,9.016763216E-1,2.210518827E0,2.388744342E0
1.280323208E1,2.155030067E-1,8.220764208E-1,2.149183874E0,2.311112830E0
1.281329308E1,3.629778984E-1,5.782621461E-1,2.021259660E0,2.133455103E0
1.282335408E1,7.757718815E-1,1.401793939E-1,1.513856996E0,1.706820225E0
1.283341408E1,3.100899498E0,8.449694395E-2,-2.806656497E0,4.183304689E0
1.284347508E1,4.065228735E0,-3.623116082E-1,-3.674840552E0,5.491976643E0
1.285353608E1,2.343212616E0,-1.851618485E0,-2.199272293E-1,2.994579163E0
1.286359608E1,2.137674800E0,-3.213917406E0,-4.503244829E-1,3.886091967E0
1.287365708E1,3.054400392E0,-4.823577522E0,-2.966909382E0,6.434190947E0
1.288371808E1,3.562858770E0,-6.241030889E0,-5.094677244E0,8.809095606E0
1.289377808E1,3.337466733E0,-7.230408429E0,-6.022532719E0,9.984407374E0
1.290383908E1,2.533488030E0,-7.845688128E0,-5.843690366E0,1.010554803E1
1.291390008E1,1.748980262E0,-8.161858188E0,-5.055295077E0,9.758630506E0
1.292396008E1,9.997896767E-1,-8.013297980E0,-3.691788999E0,8.879292197E0
1.293402108E1,1.318390278E0,-6.168344151E0,-2.904750848E0,6.944364621E0
1.294408208E1,1.118906669E0,-4.547630458E0,-2.778123254E0,5.445260667E0
1.295414208E1,3.285508083E-1,-3.184878963E0,-3.036768991E0,4.412863645E0
1.296420308E1,-3.237142839E-1,-1.699914229E0,-3.729918399E0,4.111786788E0
1.297426408E1,-7.785082322E-1,-4.545140129E-1,-3.585747404E0,3.697329103E0
1.298432508E1,-1.065572753E0,3.979211515E-1,-3.076027489E0,3.279593214E0
1.299438508E1,-1.469892074E0,1.093065630E0,-2.377233178E0,3.001101925E0
1.300444608E1,-1.809389893E0,1.736172813E0,-1.676807202E0,3.016599114E0
1.301450708E1,-2.181593236E0,2.284822320E0,-9.833119306E-1,3.308574381E0
1.302456708E1,-2.295653410E0,3.095691968E0,1.256455547E-1,3.856049811E0
1.303462808E1,-2.330722378E0,3.552203389E0,8.515963814E-1,4.333085751E0
1.304468908E1,-2.140466845E0,3.670286155E0,8.935887453E-1,4.341785304E0
1.305474908E1,-1.329612108E0,3.320792229E0,6.063866687E-1,3.628117167E0
1.306481008E1,3.501625559E-1,2.148348307E0,-1.553535032E-1,2.182234858E0
1.307487108E1,1.984664276E0,7.881713408E-1,-1.673290394E0,2.712933301E0
1.308493108E1,2.438308515E0,-4.783548653E-2,-3.049668826E0,3.904883685E0
1.309499208E1,7.405633110E-1,-7.380039847E-1,-4.166490816E0,4.295664049E0
1.310505308E1,-1.332312060E0,-1.245915940E0,-4.530214234E0,4.883666959E0
1.311511308E1,-2.227590651E0,-1.215490538E0,-4.007786858E0,4.743620227E0
1.312517408E1,-2.206108273E0,-8.057316989E-1,-3.053110204E0,3.851960436E0
1.313523508E1,-1.637673250E0,-8.765268624E-2,-1.805707317E0,2.439310472E0
1.314529508E1,-1.104058688E0,4.996562719E-1,-1.161735331E0,1.678758754E0
1.315535608E1,-8.630022526E-1,7.382367039E-1,-1.044453633E0,1.542935420E0
1.316541708E1,-1.152865397E0,6.606277800E-1,-9.795600647E-1,1.650777274E0
1.317547708E1,-1.519457752E0,6.303701931E-1,-8.170823139E-1,1.836774877E0
1.318553808E1,-1.634725960E0,8.749019212E-1,-7.638083321E-1,2.005289382E0
1.319559908E1,-1.675095137E0,1.107848561E0,-1.170831259E0,2.324675889E0
1.320565908E1,-1.627463426E0,1.280037367E0,-1.550701179E0,2.586852723E0
1.321572008E1,-1.648267235E0,1.393444115E0,-1.695420936E0,2.744617192E0
1.322578108E1,-1.571328110E0,1.403683174E0,-1.544790814E0,2.612618828E0
1.323584208E1,-1.261029823E0,1.274242192E0,-8.828187588E-1,1.998313874E0
1.324590208E1,-1.017335709E0,1.252185325E0,4.359099269E-2,1.613951736E0
1.325596308E1,-6.021880755E-1,1.212357600E0,8.055138901E-1,1.575212385E0
1.326602408E1,3.207639250E-1,1.325035785E0,1.287310134E0,1.875040455E0
1.327608408E1,1.779901800E0,1.716849520E0,1.597763956E0,2.944226953E0
1.328614508E1,3.687694193E0,2.127465561E0,1.706506380E0,4.586650434E0
1.329620608E1,5.530097759E0,2.242379136E0,1.773179841E0,6.225304182E0
1.330626608E1,6.872303892E0,2.011231100E0,2.063196475E0,7.451871645E0
1.331632708E1,7.908552128E0,1.506919860E0,2.039550920E0,8.305165391E0
1.332638808E1,8.537350005E0,6.858520836E-1,1.778186227E0,8.747495896E0
1.333644808E1,7.866541638E0,-5.111799645E-1,1.352006067E0,7.998231223E0
1.334650908E1,4.794014584E0,-1.925248379E0,-4.745071051E-1,5.187900746E0
1.335657008E1,1.271098729E0,-1.614247257E0,-2.736195794E0,3.421732545E0
1.336663008E1,-1.672819109E0,-1.337290379E0,-3.775924292E0,4.340999146E0
1.337669108E1,-3.222516029E0,-1.825575571E0,-2.837110842E0,4.665461783E0
1.338675208E1,-2.932402623E0,-2.413099707E0,-4.281711370E-1,3.821696726E0
1.339681208E1,-3.032547593E0,-2.515168703E0,2.343096256E-2,3.939919735E0
1.340687308E1,-3.705523816E0,-1.572115729E0,-7.479158923E-1,4.094121737E0
1.341693408E1,-3.672215444E0,3.513007164E-1,-3.809107241E-1,3.708594268E0
1.342699421E1,-3.063483165E0,1.778010226E0,2.529862171E-1,3.551091591E0
1.343705521E1,-1.419856865E0,2.114570112E0,3.844544291E-1,2.575889261E0
1.344711621E1,1.154939112E0,5.468017870E-1,8.176452546E-1,1.517043279E0
1.345717721E1,3.352430051E0,-1.728870810E0,1.522419074E0,4.067621094E0
1.346723721E1,4.989347255E0,-4.075082463E0,2.175345486E0,6.799412555E0
1.347729821E1,6.343151926E0,-6.327614120E0,1.079884837E0,9.024435055E0
1.348735921E1,5.242405393E0,-7.261951234E0,-3.335218187E-1,8.962699751E0
1.349741921E1,2.239274557E0,-6.102210388E0,-3.719685772E-1,6.510735963E0
1.350748021E1,-2.103796032E-1,-3.101230450E0,1.529163837E-1,3.112117174E0
1.351754121E1,-1.858754719E0,-1.010490081E0,-6.664071679E-2,2.116719229E0
1.352760121E1,-3.081040892E0,1.223214126E-1,-1.195390442E0,3.307073300E0
1.353766221E1,-4.047609905E0,9.528166544E-1,-2.027682241E0,4.626283691E0
1.354772321E1,-4.553124795E0,1.533100768E0,-2.243923970E0,5.302503008E0
1.355778321E1,-4.773744334E0,2.038569172E0,-2.255733007E0,5.659746517E0
1.356784421E1,-4.784318439E0,2.368746237E0,-2.168815901E0,5.762328008E0
1.357790521E1,-4.772928063E0,2.493604757E0,-1.951594470E0,5.727794336E0
1.358796521E1,-4.694955150E0,2.429985296E0,-1.649474393E0,5.537887519E0
1.359802621E1,-4.584379039E0,2.079507283E0,-1.239546715E0,5.184337737E0
1.360808721E1,-4.559249461E0,1.265317002E0,-7.056396461E-1,4.783901135E0
1.361814721E1,-4.672255089E0,9.421443164E-2,-1.162520027E-1,4.674650629E0
1.362820821E1,-4.621129667E0,-9.672645396E-1,4.743061070E-1,4.745040186E0
1.363826921E1,-4.293061400E0,-1.737663268E0,1.049292204E0,4.748774995E0
1.364833021E1,-3.589667085E0,-2.307306619E0,1.428785856E0,4.500089181E0
1.365839021E1,-2.818623408E0,-2.736068909E0,1.568431399E0,4.229738532E0
1.366845121E1,-2.289796401E0,-2.912544309E0,1.554753592E0,4.017877629E0
1.367851221E1,-1.750721270E0,-2.648430841E0,1.348155091E0,3.449164107E0
1.368857221E1,-1.232554906E0,-1.855005192E0,1.368766526E0,2.614145685E0
1.369863321E1,-9.444408104E-1,-9.133754307E-1,1.440515370E0,1.949694246E0
1.370869421E1,-7.352590093E-1,-1.223114723E-1,1.464974858E0,1.643690130E0
1.371875421E1,-4.327321114E-1,4.753645992E-1,1.454220659E0,1.589964247E0
1.372881521E1,-1.139432296E-1,1.007526712E0,1.364511507E0,1.699995526E0
1.373887621E1,2.216375399E-1,1.444800795E0,1.283388991E0,1.945163191E0
1.374893621E1,5.880658802E-1,1.725957143E0,1.216478133E0,2.191932615E0
1.375899721E1,9.244312730E-1,1.853320025E0,1.165194544E0,2.376351535E0
1.376905821E1,1.224765319E0,1.799239127E0,1.146990407E0,2.460263912E0
1.377911821E1,1.521058719E0,1.585380723E0,1.142168793E0,2.476207022E0
1.378917921E1,1.695531448E0,1.271206318E0,1.126133389E0,2.399785158E0
1.379924021E1,1.786025297E0,9.650583851E-1,1.091434842E0,2.304876149E0
1.380930021E1,1.760496938E0,7.085363567E-1,1.066645571E0,2.176948785E0
1.381936121E1,1.798610259E0,6.084308553E-1,1.105308530E0,2.197019326E0
1.382942221E1,1.893873973E0,7.724189419E-1,9.849009115E-1,2.270114414E0
1.383948221E1,1.765335217E0,9.714195710E-1,7.022810054E-1,2.133837627E0
1.384954321E1,1.432640633E0,1.169311568E0,4.283412544E-1,1.898216256E0
1.385960421E1,1.087311897E0,1.264220064E0,2.567570500E-1,1.687134765E0
1.386966521E1,7.964509982E-1,1.246750338E0,1.536512691E-1,1.487390100E0
1.387972521E1,5.306267074E-1,1.163582466E0,9.635451257E-2,1.282487057E0
1.388978621E1,2.342523960E-1,8.835207170E-1,-6.013634719E-2,9.160237020E-1
1.389984721E1,-3.355015397E-2,5.725640345E-1,-4.374618510E-1,7.213376862E-1
1.390990721E1,-2.442238721E-1,2.607700306E-1,-8.365500337E-1,9.096495300E-1
1.391996821E1,-4.285825617E-1,-5.653497398E-2,-1.042664312E0,1.128728525E0
1.393002921E1,-6.409042445E-1,-3.388923401E-1,-1.118768894E0,1.333135442E0
1.394008921E1,-7.841366158E-1,-4.548215765E-1,-1.002503369E0,1.351571642E0
1.395015021E1,-7.635280312E-1,-2.145308340E-1,-7.295179206E-1,1.077587551E0
1.396021121E1,-5.948424012E-1,1.490858728E-1,-3.493255270E-1,7.057566177E-1
1.397027121E1,-2.736204930E-1,5.683464378E-1,1.577520128E-1,6.502088473E-1
1.398033221E1,1.053728560E-1,9.046502155E-1,7.106659126E-1,1.155223567E0
1.399039321E1,4.794156233E-1,1.099157844E0,1.299217404E0,1.768036529E0
1.400045321E1,8.455654170E-1,1.208365706E0,1.922329448E0,2.422907151E0
1.401051421E1,1.135613333E0,1.250903615E0,2.474741639E0,2.996451848E0
1.402057521E1,1.323116729E0,1.152112568E0,2.880885730E0,3.373055564E0
1.403063521E1,1.509569233E0,9.751530182E-1,3.181102831E0,3.653647205E0
1.404069621E1,1.673380588E0,7.914036816E-1,3.784218568E0,4.212698962E0
1.405075721E1,1.959387055E0,7.101057494E-1,4.327945304E0,4.803598480E0
1.406081721E1,2.406247939E0,7.608385313E-1,4.812225738E0,5.433821948E0
1.407087821E1,2.811120846E0,6.891510826E-1,5.348596677E0,6.081514288E0
1.408093921E1,3.057311429E0,5.483852130E-1,5.936445333E0,6.699944978E0
1.409100021E1,3.112441024E0,3.064157349E-1,6.593030348E0,7.297206925E0
1.410106021E1,3.160725870E0,-2.466185993E-1,6.963341532E0,7.651087115E0
1.411112121E1,3.306272423E0,-9.105383617E-1,6.927567097E0,7.729922595E0
1.412118221E1,3.515669401E0,-1.638971624E0,6.355398334E0,7.445619337E0
1.413124221E1,3.642044981E0,-2.210386096E0,5.560451825E0,7.004921329E0
1.414130321E1,3.292367744E0,-2.095325171E0,4.649584265E0,6.070313564E0
1.415136421E1,2.350350751E0,-9.755354261E-1,3.569622245E0,4.383836332E0
1.416142421E1,1.406375232E0,-2.116282761E-2,2.655723488E0,3.005196567E0
1.417148521E1,9.398015564E-1,3.316564107E-1,2.038342885E0,2.268934696E0
1.418154621E1,1.027145875E0,3.988514435E-1,1.688905091E0,2.016559330E0
1.419160621E1,1.357261983E0,3.589307481E-1,1.365058807E0,1.958156510E0
1.420166721E1,2.390628565E0,4.237225753E-1,-1.058217979E0,2.648484670E0
1.421172821E1,4.858270222E0,7.194993013E-1,-6.513948510E0,8.157940548E0
1.422178821E1,3.633996873E0,-8.453769904E-1,-4.226716552E0,5.637883321E0
1.423184921E1,1.784663188E0,-3.098915538E0,-1.339229316E0,3.818616944E0
1.424191021E1,6.110493846E-1,-5.064620216E0,-1.597939957E0,5.345762003E0
1.425197021E1,-2.321362156E-1,-6.527884179E0,-2.566190338E0,7.018011964E0
1.426203121E1,-6.836019288E-1,-7.598575439E0,-3.269578221E0,8.300349513E0
1.427209221E1,-1.168210245E0,-8.434760022E0,-3.205137227E0,9.098505176E0
1.428215321E1,-1.496745120E0,-8.909291393E0,-2.879185359E0,9.481847257E0
1.429221321E1,-1.393824915E0,-8.653693224E0,-2.472467364E0,9.107263540E0
1.430227421E1,-2.486553307E-1,-6.639920340E0,-2.496842652E0,7.098210677E0
1.431233521E1,7.542646529E-1,-4.668022290E0,-3.418794487E0,5.835023822E0
1.432239521E1,1.388180305E0,-3.120171921E0,-4.761293273E0,5.859388279E0
1.433245621E1,1.518105291E0,-1.923960822E0,-5.121953920E0,5.678087783E0
1.434251721E1,1.651012941E0,-8.027314925E-1,-4.747062905E0,5.089678556E0
1.435257721E1,1.506147150E0,4.384984893E-1,-4.395042104E0,4.666599967E0
1.436263821E1,1.207121857E0,1.652345375E0,-4.262702949E0,4.728427312E0
1.437269921E1,1.011530886E0,2.836547463E0,-3.640334670E0,4.724535189E0
1.438275921E1,5.445555791E-1,3.837348708E0,-2.622544340E0,4.679692800E0
1.439282021E1,7.256745458E-2,4.555114895E0,-8.779453969E-1,4.639517848E0
1.440288121E1,-6.653321573E-1,4.495220695E0,1.023311271E0,4.657986897E0
1.441294121E1,-1.845906048E0,3.785702591E0,2.122322058E0,4.716265913E0
1.442300221E1,-2.229858493E0,2.111371685E0,2.423749825E0,3.912125063E0
1.443306446E1,-1.481441202E0,-2.932881510E-1,2.372469159E0,2.812347042E0
1.444312446E1,-1.336179701E0,-2.065191545E0,1.982892277E0,3.159470540E0
1.445318546E1,-1.973337049E0,-2.830719543E0,1.038243598E0,3.603468053E0
1.446324646E1,-2.903467092E0,-2.518748953E0,-1.145770970E0,4.010861324E0
1.447330646E1,-3.692903185E0,-1.405164274E0,-5.263461217E0,6.581492578E0
1.448336746E1,-3.068131701E0,-6.101949602E-1,-6.195263563E0,6.940249321E0
1.449342846E1,-2.547079298E0,-1.081272966E-1,-6.034261065E0,6.550695464E0
1.450348946E1,-2.259951481E0,1.393794948E-1,-5.245487460E0,5.713313053E0
1.451354946E1,-1.828020292E0,1.805053014E-1,-3.585841544E0,4.028957673E0
1.452361046E1,-1.447246393E0,2.125299168E-1,-1.564765487E0,2.142004229E0
1.453367146E1,-1.270101194E0,2.149921793E-1,-2.315526634E-1,1.308814469E0
1.454373146E1,-1.242388900E0,3.940228128E-1,3.504037535E-1,1.349654380E0
1.455379246E1,-1.316467275E0,7.439365697E-1,5.357312536E-1,1.604224324E0
1.456385346E1,-1.768036630E0,1.134230613E0,1.784234002E-1,2.108143145E0
1.457391346E1,-2.358823512E0,1.534563156E0,-5.462869397E-1,2.866594122E0
1.458397446E1,-2.711765834E0,1.957412742E0,-1.338408367E0,3.602287543E0
1.459403546E1,-2.734914084E0,2.388269506E0,-1.708223999E0,4.012681835E0
1.460409546E1,-2.515018722E0,2.762916985E0,-1.458961289E0,4.010934739E0
1.461415646E1,-2.491575188E0,2.940322092E0,-7.972131827E-1,3.935605390E0
1.462421746E1,-2.395941052E0,2.791713937E0,4.388335347E-2,3.679147453E0
1.463427746E1,-2.122078521E0,2.641091416E0,6.257696038E-1,3.445311120E0
1.464433846E1,-1.752987651E0,2.501982647E0,8.342275196E-1,3.166830975E0
1.465439946E1,-1.151115618E0,2.255844104E0,6.573416448E-1,2.616485778E0
1.466445946E1,3.876616269E-2,2.140186763E0,5.528662267E-1,2.210783405E0
1.467452046E1,1.843904546E0,2.146518713E0,7.406662220E-1,2.925083420E0
1.468458146E1,3.909094336E0,2.037896742E0,1.089877728E0,4.541131481E0
1.469464246E1,5.867613080E0,1.602076278E0,1.256740014E0,6.210871687E0
1.470470246E1,7.367012250E0,8.282177514E-1,1.266966794E0,7.520905464E0
1.471476346E1,8.371822346E0,-2.220217019E-1,1.492285741E0,8.506680890E0
1.472482446E1,9.046932510E0,-1.458148234E0,1.983810582E0,9.375963339E0
1.473488446E1,9.123219963E0,-2.971588324E0,1.888583413E0,9.779070864E0
1.474494546E1,7.222678410E0,-3.690831517E0,7.895527455E-1,8.149399624E0
1.475500646E1,3.059385436E0,-2.811381631E0,-8.627028751E-1,4.243578935E0
1.476506646E1,1.715900517E-1,-2.160257916E0,-1.399598894E0,2.579735349E0
1.477512746E1,-7.992295951E-1,-2.266331670E0,-5.286567074E-1,2.460590397E0
1.478518846E1,-1.811495183E0,-2.701044672E0,2.418548727E-1,3.261234567E0
1.479524846E1,-2.952781047E0,-2.889827292E0,1.497489470E-1,4.134300719E0
1.480530946E1,-3.873733592E0,-2.911978884E0,-1.439929479E-1,4.848315886E0
1.481537046E1,-4.382550112E0,-2.850990670E0,-3.364876726E-1,5.239095078E0
1.482543046E1,-4.205455492E0,-3.076066373E0,-6.018851897E-1,5.245026788E0
1.483549146E1,-3.331550521E0,-3.648893532E0,-1.104467408E0,5.062953796E0
1.484555246E1,-1.834777334E0,-4.168256675E0,-1.248666763E0,4.722281256E0
1.485561246E1,4.851712570E-1,-4.384808307E0,-2.040523604E0,4.860624611E0
1.486567346E1,9.435964724E-1,-3.343037961E0,-2.239126915E0,4.132791605E0
1.487573446E1,7.524460226E-2,-2.000673367E0,-1.669154074E0,2.606612935E0
1.488579546E1,-5.324652913E-1,-1.013694355E0,-1.563793680E0,1.938181159E0
1.489585546E1,-1.143314555E0,-5.176586795E-1,-1.453470608E0,1.920342544E0
1.490591646E1,-1.356034799E0,-8.172413582E-1,-1.370432982E0,2.093991493E0
1.491597746E1,-1.481115805E0,-1.196133916E0,-1.207289380E0,2.254326511E0
1.492603746E1,-1.879219974E0,-1.313463560E0,-1.087757235E0,2.537689902E0
1.493609846E1,-2.386438158E0,-1.103635642E0,-9.392530145E-1,2.792005540E0
1.494615946E1,-2.947434061E0,-6.642103690E-1,-8.190686131E-1,3.130401947E0
1.495621946E1,-3.515507433E0,-1.655352598E-1,-7.259626673E-1,3.593496380E0
1.496628046E1,-4.017209061E0,1.716075933E-1,-6.088781673E-1,4.066712484E0
1.497634146E1,-4.651384330E0,2.254961175E-1,-2.333512670E-1,4.662689942E0
1.498640146E1,-5.209745770E0,-8.177857339E-2,4.015054947E-1,5.225834420E0
1.499646246E1,-5.314510918E0,-6.857240295E-1,1.048308118E0,5.460145937E0
1.500652346E1,-5.111160545E0,-1.416659900E0,1.596310338E0,5.538871192E0
1.501658346E1,-4.752647288E0,-1.908820626E0,2.112124221E0,5.540065086E0
1.502664446E1,-4.197897088E0,-2.118344489E0,2.706049889E0,5.425166296E0
1.503670546E1,-3.740022973E0,-1.983872563E0,2.938307726E0,5.153365355E0
1.504676546E1,-3.556835846E0,-1.150061365E0,2.642494163E0,4.577826753E0
1.505682646E1,-3.801445634E0,-2.010553408E-1,2.138118603E0,4.366115358E0
1.506688746E1,-3.849364151E0,5.385870337E-1,1.644278557E0,4.220347419E0
1.507694846E1,-3.747155991E0,1.102186117E0,1.264389634E0,4.105444361E0
1.508700846E1,-3.410337951E0,1.382332651E0,1.036563401E0,3.823050115E0
1.509706946E1,-2.993690214E0,1.483097718E0,9.496386927E-1,3.473265551E0
1.510713046E1,-2.555111618E0,1.535550166E0,9.775644100E-1,3.137218811E0
1.511719046E1,-2.126125672E0,1.351692656E0,1.023628190E0,2.719429734E0
1.512725146E1,-1.634481693E0,1.132312726E0,1.146476437E0,2.295227818E0
1.513731246E1,-1.054653078E0,9.708664244E-1,1.242395917E0,1.896950801E0
1.514737246E1,-4.616066855E-1,8.288971978E-1,1.346246560E0,1.646976350E0
1.515743346E1,1.801147804E-1,6.974026734E-1,1.431310099E0,1.602329686E0
1.516749446E1,8.430628818E-1,6.528866512E-1,1.505825261E0,1.845135691E0
1.517755446E1,1.364660026E0,6.034700775E-1,1.513174626E0,2.125128366E0
1.518761546E1,1.837463545E0,5.790111744E-1,1.462482775E0,2.418756310E0
1.519767646E1,2.194564115E0,5.391729248E-1,1.332178159E0,2.623264711E0
1.520773646E1,2.487963363E0,4.597244668E-1,1.138619533E0,2.774484226E0
1.521779746E1,2.657921164E0,3.645160085E-1,8.788107848E-1,2.823070178E0
1.522785846E1,2.816128986E0,2.869287193E-1,5.953091186E-1,2.892629168E0
1.523791846E1,2.933196383E0,2.217340189E-1,2.875730094E-1,2.955588813E0
1.524797946E1,3.223475264E0,2.036895114E-1,-1.557043362E-1,3.233655213E0
1.525804046E1,3.658666861E0,2.090555012E-1,-1.232709419E0,3.866409176E0
1.526810146E1,3.097375381E0,3.708953208E-1,-1.871307814E0,3.637731508E0
1.527816146E1,2.956863865E0,7.025692731E-1,-1.266310882E0,3.292444495E0
1.528822246E1,3.403500509E0,1.125539896E0,-6.575288288E-1,3.644585016E0
1.529828346E1,3.454242939E0,1.529923391E0,-4.062681980E-1,3.799672843E0
1.530834346E1,3.179330833E0,1.721771706E0,-2.246856203E-1,3.622585538E0
1.531840446E1,2.594577692E0,1.482749224E0,-5.723196208E-2,2.988921906E0
1.532846546E1,1.747545209E0,1.102194888E0,-7.414170045E-1,2.195096126E0
1.533852546E1,1.273629258E0,9.329063004E-1,-1.035611474E0,1.888104016E0
1.534858646E1,1.208733642E0,7.790853524E-1,-7.220926876E-1,1.609170238E0
1.535864746E1,9.339643541E-1,5.957166696E-1,-4.577101010E-1,1.198610154E0
1.536870746E1,5.552635486E-1,3.885527426E-1,-1.352414934E-1,6.910724302E-1
1.537876846E1,1.866602267E-1,1.820764482E-1,3.949437128E-1,4.732593470E-1
1.538882946E1,-2.108330548E-1,5.193146110E-2,9.085041153E-1,9.340916343E-1
1.539888946E1,-7.143454193E-1,6.615890622E-2,1.165709099E0,1.368774664E0
1.540895046E1,-1.202567973E0,1.358892918E-1,1.273269800E0,1.756659219E0
1.541901146E1,-1.614887381E0,2.317017674E-1,1.369249506E0,2.129880553E0
1.542907150E1,-1.964542252E0,2.811095703E-1,1.490020237E0,2.481654520E0
1.543913150E1,-2.282632830E0,3.584775889E-1,1.668508834E0,2.850059745E0
1.544919250E1,-2.493173232E0,4.201423252E-1,1.711124511E0,3.052929647E0
1.545925350E1,-2.469818283E0,5.346863562E-1,1.740910227E0,3.068657731E0
1.546931350E1,-2.258476813E0,7.117915016E-1,1.837915535E0,2.997548694E0
1.547937450E1,-1.929273748E0,8.115286285E-1,1.949179863E0,2.860066091E0
1.548943550E1,-1.524867742E0,8.159923929E-1,2.446177990E0,2.995805731E0
1.549949550E1,-1.028096267E0,6.480831635E-1,3.272346293E0,3.490736882E0
1.550955650E1,-4.486658471E-1,3.278685844E-1,4.111239306E0,4.148624770E0
1.551961750E1,3.767611013E-1,-8.304741919E-2,4.994688102E0,5.009566352E0
1.552967750E1,1.389506015E0,-6.017989433E-1,5.699081122E0,5.896813933E0
1.553973850E1,2.475681579E0,-1.197689860E0,6.047536583E0,6.643505024E0
1.554979950E1,3.385396945E0,-1.740893855E0,6.083355457E0,7.176269052E0
1.555985950E1,3.779291411E0,-2.095437437E0,5.964311993E0,7.365250788E0
1.556992050E1,3.826295424E0,-2.205247563E0,6.236206352E0,7.641591663E0
1.557998150E1,3.922817751E0,-2.278935928E0,6.122103785E0,7.619855828E0
1.559004150E1,4.410343682E0,-2.208654150E0,4.859831429E0,6.924394996E0
1.560010250E1,4.859172447E0,-2.009839463E0,3.387635844E0,6.255164918E0
1.561016350E1,4.707350662E0,-2.082107540E0,2.253774190E0,5.619058655E0
1.562022450E1,3.991430149E0,-2.057808850E0,1.493951905E0,4.732650864E0
1.563028450E1,2.771535196E0,-1.656780488E0,1.057157879E0,3.397633251E0
1.564034550E1,1.672941754E0,-9.499176049E-1,4.185957366E-1,1.968832131E0
1.565040650E1,7.632038762E-1,1.234812663E0,-4.805492084E0,5.019959824E0
1.566046650E1,-4.423798710E-2,2.030759631E0,-2.745694596E0,3.415374136E0
1.567052750E1,-4.237608746E-2,9.466536891E-1,1.935076963E0,2.154639597E0
1.568058850E1,-6.673080777E-1,-4.481148201E-1,2.193956735E0,2.336568663E0
1.569064850E1,-1.848853921E0,-2.426580462E0,6.035712343E-1,3.109799318E0
1.570070950E1,-2.403844880E0,-4.220114461E0,-3.041463720E0,5.730474486E0
1.571077050E1,-8.697193877E-1,-5.448658324E0,-6.430238602E0,8.473031206E0
1.572083050E1,-4.192324984E-1,-6.057562219E0,-6.415503618E0,8.833374361E0
1.573089150E1,-1.853879749E0,-6.386163459E0,-4.719039831E0,8.154096565E0
1.574095250E1,-1.616996764E0,-5.772168394E0,-3.750673091E0,7.071078782E0
1.575101250E1,-3.711610767E-1,-3.742846593E0,-3.265292212E0,4.980842739E0
1.576107350E1,-3.200909105E-1,-2.433686584E0,-3.119440434E0,3.969407664E0
1.577113450E1,-4.292844468E-1,-1.386554341E0,-2.785210664E0,3.140735028E0
1.578119550E1,-2.768808639E-1,-4.230279261E-1,-2.165232873E0,2.223476790E0
1.579125550E1,1.854906374E-1,5.340723985E-1,-1.251519912E0,1.373296105E0
1.580131650E1,7.533935639E-1,1.569248840E0,-6.392832501E-1,1.854407414E0
1.581137750E1,1.219733571E0,2.515109062E0,-4.178382298E-1,2.826324886E0
1.582143750E1,1.380150762E0,3.043005631E0,-1.031571633E-1,3.342953903E0
1.583149850E1,1.511445605E0,3.043561701E0,8.395242199E-2,3.399232804E0
1.584155950E1,1.677335498E0,3.003892436E0,1.678500263E-1,3.444560606E0
1.585161950E1,1.074113050E0,2.542331359E0,6.756707655E-1,2.841425446E0
1.586168050E1,-1.106413069E-1,1.948496323E0,1.299101629E0,2.344471041E0
1.587174150E1,-1.302475180E0,1.470847217E0,1.806123054E0,2.668691368E0
1.588180150E1,-2.223827383E0,9.917023927E-1,1.914453834E0,3.097420757E0
1.589186250E1,-3.010611472E0,6.187044132E-1,1.943458655E0,3.636427935E0
1.590192350E1,-3.736857875E0,3.308307838E-1,1.991530661E0,4.247322705E0
1.591198350E1,-4.370156646E0,2.391745090E-2,1.822236226E0,4.734911406E0
1.592204450E1,-4.936690739E0,-1.195393074E-1,1.550222585E0,5.175750686E0
1.593210550E1,-5.416820819E0,-1.296374488E-1,1.156642698E0,5.540449078E0
1.594216550E1,-5.734945019E0,5.162272811E-2,6.673536859E-1,5.773873935E0
1.595222650E1,-5.686991419E0,5.800718594E-1,2.456403601E-1,5.721773671E0
1.596228750E1,-5.009445305E0,1.186089569E0,-3.916055739E-2,5.148095209E0
1.597234850E1,-3.743091299E0,1.407696118E0,-9.315491617E-2,4.000127332E0
1.598240850E1,-2.304887918E0,1.236261603E0,4.308959395E-2,2.615856987E0
1.599246950E1,-1.036475400E0,1.064398486E0,7.800536513E-2,1.487719809E0
1.600253050E1,-6.421616882E-2,1.019106538E0,-8.764566958E-2,1.024882245E0
1.601259050E1,1.236280898E0,1.124541777E0,-2.075045419E0,2.664356988E0
1.602265150E1,1.694782128E0,1.384169261E0,-3.184156832E0,3.863556100E0
1.603271250E1,-1.906926128E-1,1.470948374E0,-2.124052834E0,2.590685861E0
1.604277250E1,-1.193384847E0,1.277970961E0,-1.730259670E0,2.459913758E0
1.605283350E1,-1.273257228E0,8.925002861E-1,-1.353238368E0,2.061309004E0
1.606289450E1,-2.898716229E-1,5.746561682E-1,-8.975910182E-1,1.104502107E0
1.607295450E1,1.256902274E0,6.009160137E-1,-9.618406624E-2,1.396479415E0
1.608301550E1,2.910496615E0,7.660723740E-1,9.584763207E-1,3.158565225E0
1.609307650E1,4.612730726E0,7.546650410E-1,1.785372455E0,5.003434708E0
1.610313650E1,5.845811151E0,7.193016654E-1,2.583798058E0,6.431711693E0
1.611319750E1,5.766790125E0,7.194887763E-1,3.569250947E0,6.820050202E0
1.612325850E1,3.979241044E0,7.916416633E-1,3.829415206E0,5.579021117E0
1.613331850E1,1.981526660E0,8.199088579E-1,3.217908715E0,3.866993010E0
1.614337950E1,2.200035354E-1,7.330531472E-1,2.555984607E0,2.668112776E0
1.615344050E1,-1.148621488E0,7.111459690E-1,2.011571262E0,2.423113463E0
1.616350150E1,-1.727685287E0,8.571462661E-1,1.522400217E0,2.457091491E0
1.617356150E1,-1.251440390E0,1.002768833E0,1.460415784E0,2.168977327E0
1.618362250E1,3.091267964E-1,5.990899283E-1,1.678591772E0,1.808905320E0
1.619368350E1,1.709937818E0,-6.083571804E-1,1.781976392E0,2.543506569E0
1.620374350E1,2.593289843E0,-2.058321066E0,2.037671040E0,3.887665249E0
1.621380450E1,3.244940393E0,-3.705662395E0,2.663779782E0,5.599758447E0
1.622386550E1,3.926891799E0,-5.517707509E0,2.581939813E0,7.247895457E0
1.623392550E1,4.712294483E0,-7.139605848E0,6.836757499E-1,8.581789061E0
1.624398650E1,5.203573449E0,-8.812469103E0,-1.761449303E0,1.038457953E1
1.625404750E1,3.603091707E0,-9.815730271E0,-2.873997710E0,1.084392426E1
1.626410750E1,-5.750409150E-1,-8.721597524E0,-4.713571515E0,9.930493032E0
1.627416850E1,-4.222298689E0,-4.494107385E0,-7.203749219E0,9.482552937E0
1.628422950E1,-5.514692684E0,-9.766282707E-1,-5.997034766E0,8.205489880E0
1.629428950E1,-5.403045949E0,5.937514204E-1,-3.131693859E0,6.273193182E0
1.630435050E1,-5.444709699E0,1.409495891E0,-1.182688390E0,5.747198814E0
1.631441150E1,-5.703167156E0,2.020794806E0,-3.871008790E-1,6.062967454E0
1.632447250E1,-5.800179480E0,2.473472208E0,-4.958380401E-2,6.305759694E0
1.633453250E1,-5.606510927E0,2.104169084E0,2.023037213E-1,5.991779294E0
1.634459350E1,-5.387332726E0,9.267503518E-1,2.024803072E-1,5.470211915E0
1.635465450E1,-5.180880990E0,2.517805213E-1,5.370791099E-1,5.214726765E0
1.636471450E1,-4.389308031E0,-2.998194909E-1,1.304610291E0,4.588891449E0
1.637477550E1,-3.218544307E0,-6.989913619E-1,2.207129781E0,3.964724234E0
1.638483650E1,-2.442813503E0,-8.868770188E-1,2.826240576E0,3.839469292E0
1.639489650E1,-1.987962690E0,-1.057423927E0,3.362118595E0,4.046477785E0
1.640495750E1,-1.790946898E0,-1.233606967E0,3.798609735E0,4.377066696E0
1.641501850E1,-2.092308300E0,-1.473049863E0,4.112095338E0,4.843238378E0
1.642507850E1,-3.306969703E0,-1.542826442E0,4.071174184E0,5.467249883E0
1.643513888E1,-4.351724761E0,-1.466187571E0,3.733053092E0,5.918014850E0
1.644519988E1,-4.675401768E0,-1.178309848E0,3.338067827E0,5.864340765E0
1.645525988E1,-4.444794307E0,-5.747929931E-1,3.064115249E0,5.429123841E0
1.646532088E1,-3.909909731E0,3.694387794E-2,2.982220316E0,4.917560062E0
1.647538188E1,-3.237241072E0,5.737609595E-1,2.913067635E0,4.392595411E0
1.648544288E1,-2.783179341E0,8.816472691E-1,2.725070297E0,3.993669650E0
1.649550288E1,-2.637525199E0,1.024329856E0,2.466329834E0,3.753474881E0
1.650556388E1,-2.523196930E0,1.011388798E0,2.146573677E0,3.463698688E0
1.651562488E1,-2.224370297E0,9.592263722E-1,1.872411768E0,3.061676711E0
1.652568488E1,-1.762953792E0,8.375066382E-1,1.658755678E0,2.561424182E0
1.653574587E1,-1.226050318E0,6.352567112E-1,1.455074937E0,2.005989418E0
1.654580687E1,-6.774325316E-1,3.635740221E-1,1.263126050E0,1.478711711E0
1.655586687E1,-1.636189811E-1,4.163042128E-2,1.087159942E0,1.100191348E0
1.656592787E1,3.054614693E-1,-2.173287266E-1,9.532019860E-1,1.024271698E0
1.657598888E1,7.092250125E-1,-3.620291877E-1,8.525211185E-1,1.166557975E0
1.658604888E1,1.019590103E0,-3.954571348E-1,7.473957825E-1,1.324594572E0
1.659610988E1,1.227707272E0,-2.142618620E-1,6.112720174E-1,1.388101859E0
1.660617088E1,1.766825087E0,2.102477485E-1,-1.571727474E0,2.374068714E0
1.661623088E1,3.090270429E0,7.402937543E-1,-7.864360626E0,8.482097278E0
1.662629188E1,1.066981128E0,9.518699902E-1,-3.363865158E0,3.655146236E0
1.663635288E1,8.363451619E-1,8.602131307E-1,-1.730762385E0,2.105938815E0
