"Time (s)","Linear Acceleration x (m/s^2)","Linear Acceleration y (m/s^2)","Linear Acceleration z (m/s^2)","Absolute acceleration (m/s^2)"
8.632833371E-3,6.149069390E-1,-2.266588363E-1,-1.239230819E0,1.401847992E0
1.869383338E-2,6.848975256E-1,-1.118455410E-1,-1.118715611E0,1.316479648E0
2.875583328E-2,3.475880268E-1,-6.989966244E-2,-1.009823499E0,1.070255529E0
3.881683329E-2,7.006581107E-1,-1.829777965E-1,-9.827725250E-1,1.220755708E0
4.887783329E-2,2.103439060E0,-5.338762245E-1,-9.133228058E-1,2.354493204E0
5.893983331E-2,9.746998590E-1,-1.417116860E0,-8.830874383E-1,1.933417553E0
6.900083332E-2,4.620668614E-1,-2.678513304E0,-5.937093204E-1,2.782162838E0
7.906183333E-2,5.140842766E-2,-3.118307536E0,-2.323142048E0,3.888891062E0
8.912283333E-2,-3.929700217E-1,-2.642733606E0,-3.954142748E0,4.772180971E0
9.918483335E-2,-1.766499397E-1,-2.349194610E0,-4.612081978E0,5.178920803E0
1.092458334E-1,1.475132056E0,-1.258725436E0,-5.116175117E0,5.471348292E0
1.193068334E-1,3.554406620E0,-5.218476248E-1,-5.729314735E0,6.762483175E0
1.293688334E-1,5.291692159E0,-7.308999100E-1,-6.447058117E0,8.372620793E0
1.394298334E-1,5.940651820E0,-1.211196928E0,-6.744025921E0,9.068639791E0
1.494908333E-1,5.504932512E0,-1.428390876E0,-6.930372006E0,8.965190383E0
1.595518333E-1,4.052817728E0,-2.228379732E0,-7.065507592E0,8.444667270E0
1.696138333E-1,2.407371190E0,-3.407946732E0,-7.091690254E0,8.228098665E0
1.796748333E-1,1.100926335E0,-4.180814740E0,-7.250826906E0,8.441903903E0
1.897358333E-1,1.472609568E-1,-4.473122605E0,-7.854687577E0,9.040278125E0
1.997968333E-1,-3.217275462E0,-4.200483896E0,-9.900997878E0,1.122607168E1
2.098588333E-1,-6.585645899E0,-4.757610697E0,-9.671507528E0,1.263105891E1
2.199198334E-1,-5.191224130E0,-6.527044519E0,-6.272167313E0,1.043509468E1
2.299808334E-1,-2.925729781E0,-7.327365789E0,-6.321924194E0,1.011023786E1
2.400428334E-1,-3.028281757E0,-7.426674900E0,-5.646975414E0,9.808889937E0
2.501038334E-1,-2.103223005E0,-7.664776445E0,-4.393076270E0,9.081380075E0
2.601648333E-1,-1.854108814E0,-7.749601418E0,-2.537054247E0,8.362456928E0
2.702268333E-1,-1.871859207E0,-8.093034706E0,-7.483769453E-1,8.340331869E0
2.802878333E-1,-1.965408225E0,-8.329544054E0,3.148477122E-1,8.564068117E0
2.903488333E-1,-2.329855821E0,-8.699432484E0,1.344839135E0,9.105874257E0
3.004098333E-1,-2.559523927E0,-9.553683794E0,3.275900230E0,1.041899991E1
3.104718333E-1,-2.456220583E0,-1.041069616E1,5.138762911E0,1.186686556E1
3.205328333E-1,-1.000844514E0,-9.716824619E0,6.313403631E0,1.163088285E1
3.305938334E-1,1.819181056E0,-7.322193927E0,8.231034842E0,1.116574575E1
3.406548334E-1,4.991151706E0,-5.472607350E0,9.530035899E0,1.206990517E1
3.507168334E-1,8.213981438E0,-3.675486377E0,1.058586938E1,1.389385914E1
3.607778334E-1,9.928560483E0,-2.261300434E0,1.091613416E1,1.492822085E1
3.708388334E-1,1.049132458E1,-1.440462892E0,1.017500542E1,1.468582855E1
3.809008333E-1,1.126574854E1,-3.275364625E-1,9.570460625E0,1.478573930E1
3.909618333E-1,1.324793008E1,1.360887111E0,9.269825447E0,1.622619269E1
4.010228333E-1,1.488248297E1,3.499254805E0,8.921882202E0,1.770121650E1
4.110838333E-1,1.534780205E1,5.261912874E0,8.938426899E0,1.852399067E1
4.211458333E-1,1.468875770E1,5.584442950E0,8.359463671E0,1.779961344E1
4.312068333E-1,1.208563108E1,5.547218406E0,6.666873080E0,1.487552713E1
4.412678333E-1,9.404380989E0,4.936433462E0,4.356554561E0,1.147999672E1
4.513298334E-1,8.337831312E0,4.462704914E0,2.450889092E0,9.769443356E0
4.613908334E-1,7.731225373E0,4.582037814E0,1.219191241E0,9.069362910E0
4.714518334E-1,7.178868731E0,4.394000130E0,2.252779798E-1,8.419866007E0
4.815128334E-1,7.043080596E0,3.603534634E0,7.884736419E-2,7.911805297E0
4.915748333E-1,7.149065473E0,3.768267948E0,-8.818204637E0,1.196117525E1
5.016358333E-1,6.054887702E0,6.957042911E0,-2.739401354E1,2.890491462E1
5.116968333E-1,4.126738520E0,4.506652294E0,-6.763341029E0,9.114969423E0
5.217588333E-1,5.682746925E0,2.411268359E0,1.861754633E0,6.447787064E0
5.318199167E-1,7.033961279E0,8.150922140E-1,6.884149182E-1,7.114415063E0
5.418809167E-1,5.642601696E0,-1.118791625E0,2.613665636E0,6.318377692E0
5.519419167E-1,4.455226325E0,-1.787604045E0,4.265778877E0,6.421949801E0
5.620039167E-1,1.429606220E0,-1.625575360E0,-7.153062630E-1,2.279897420E0
5.720649167E-1,-1.424777005E0,-2.325532098E0,-3.023153164E0,4.071553034E0
5.821259166E-1,-2.573781193E0,-2.525168027E0,-2.697984824E0,4.503326027E0
5.921879166E-1,-6.010762274E-1,-3.368071060E0,-1.335997560E0,3.672885076E0
6.022489166E-1,1.502064332E0,-3.396748729E0,2.046258845E0,4.240433286E0
6.123099166E-1,3.947200348E0,5.346100500E-1,1.077045502E0,4.126284710E0
6.223709167E-1,2.379875243E0,-1.711421549E-1,-2.058118168E0,3.151023041E0
6.324329167E-1,2.136829877E-1,-1.640134343E0,2.361437802E0,2.883069471E0
6.424939167E-1,-2.905000817E0,-1.975244411E0,2.736347237E0,4.452888549E0
6.525549167E-1,-3.268599397E0,-2.483012818E0,5.625254177E0,6.963661338E0
6.626159167E-1,-4.898345284E0,-1.665299297E0,1.651608042E0,5.430913127E0
6.726779167E-1,-2.349575556E0,-6.352917945E-1,9.833496451E-2,2.435933234E0
6.827389167E-1,6.948415929E-1,1.124442082E0,9.981793535E-1,1.656362538E0
6.927999167E-1,3.075428442E0,2.235455156E0,1.724482767E-1,3.805950376E0
7.028619166E-1,3.989725978E0,3.348324428E0,3.235064153E-1,5.218605777E0
7.129229166E-1,3.188846299E0,3.838932426E0,-2.913375199E-1,4.999101964E0
7.229839166E-1,2.748409458E0,4.041710064E0,7.138327646E-1,4.939507264E0
7.330449166E-1,1.893965190E0,4.252662402E0,1.873245581E0,5.018096318E0
7.431069167E-1,1.012972809E0,4.415290719E0,-1.675015615E0,4.829760176E0
7.531679167E-1,1.548123434E0,5.062950836E0,-3.659772277E0,6.436154944E0
7.632289167E-1,1.942949654E0,5.432681977E0,-5.414940355E0,7.912690179E0
7.732909167E-1,1.811749830E0,5.388275297E0,-5.568488238E0,7.957638430E0
7.833519167E-1,8.350853062E-1,4.543097697E0,-4.280716174E0,6.297748416E0
7.934129167E-1,-1.070959647E0,3.168382506E0,-2.426527838E0,4.132026091E0
8.034739167E-1,-3.314015306E0,1.435232996E0,-8.507488275E-1,3.710305212E0
8.135359166E-1,-4.530130911E0,4.809326103E-1,-5.950804925E-1,4.594290265E0
8.235969166E-1,-4.135520453E0,6.141111329E-1,-1.540620872E0,4.455690135E0
8.336579166E-1,-2.551215034E0,9.283062959E-1,-2.662155426E0,3.802304858E0
8.437189166E-1,-1.294282354E0,1.542456897E0,-3.106920376E0,3.702336332E0
8.537809167E-1,-1.062151401E0,1.648991705E0,-2.465055141E0,3.150212071E0
8.638419167E-1,-1.576207026E0,1.320473202E0,-1.422450982E0,2.500288956E0
8.739029167E-1,-2.351758322E0,9.256186232E-1,-8.973195612E-1,2.681924576E0
8.839649167E-1,-2.379638430E0,7.477472001E-1,-1.247766730E0,2.789036885E0
8.940259167E-1,-1.199582604E0,1.085898113E0,-1.816090364E0,2.432356336E0
9.040869167E-1,3.814735186E-1,1.921720169E0,-1.931996065E0,2.751570324E0
9.141479167E-1,6.948667359E-1,2.340783390E0,-1.423157326E0,2.826213622E0
9.242099166E-1,-5.219423497E-1,1.846408762E0,-5.677377427E-1,2.000993572E0
9.342709166E-1,-1.106183274E0,1.585936647E0,1.049607954E0,2.200116665E0
9.443319166E-1,-1.583594983E0,8.876643464E-1,2.633652880E0,3.198726084E0
9.543939166E-1,-1.799377121E0,3.373844893E-1,3.519931437E0,3.967556381E0
9.644549167E-1,-2.432334123E0,2.389697103E-1,3.816958005E0,4.532386151E0
9.745159167E-1,-3.759668448E0,-7.983792637E-1,4.492724811E0,5.912452327E0
9.845769167E-1,-5.528215540E0,-2.733862170E0,4.821816048E0,7.828478743E0
9.946389167E-1,-6.418880385E0,-3.737326822E0,3.275230139E0,8.117682529E0
1.004699917E0,-5.895825310E0,-4.182429449E0,1.453516362E0,7.373342661E0
1.014760917E0,-4.781322033E0,-4.200421039E0,9.436306787E-1,6.433895876E0
1.024822917E0,-3.997470031E0,-3.770336401E0,1.132767347E0,5.610558358E0
1.034883917E0,-3.687659987E0,-3.544682116E0,8.321464956E-1,5.182284754E0
1.044944917E0,-3.078128101E0,-3.154500924E0,-4.442059565E-1,4.429793180E0
1.055005917E0,-9.657857788E-1,-1.368558365E0,-1.426951292E0,2.200428176E0
1.065067917E0,-5.408674479E-4,4.770000654E-1,-2.158904139E0,2.210971831E0
1.075128917E0,-2.999808741E-1,1.433668281E0,-2.026985107E0,2.500812246E0
1.085189917E0,1.184061170E-1,2.305195481E0,-4.379678544E-1,2.349417387E0
1.095250917E0,8.104229200E-1,3.599701199E0,1.859487960E0,4.131867557E0
1.105312917E0,1.489155434E0,2.263594881E0,2.362736761E0,3.594992447E0
1.115373917E0,-1.746369188E0,3.512056407E0,7.838955644E-1,3.999854722E0
1.125434917E0,-2.766745157E0,4.034137335E0,7.826194096E-1,4.953951548E0
1.135495917E0,-3.205943558E0,2.656006201E0,5.776011184E-1,4.203101960E0
1.145557917E0,-1.955154548E0,2.029883718E0,3.900510916E-1,2.845205980E0
1.155618917E0,-6.726227582E-1,1.639963896E0,7.127896214E-1,1.910489990E0
1.165679917E0,-6.853106314E-1,2.024554273E0,2.395253128E0,3.210250490E0
1.175741917E0,2.352992084E0,2.976700544E-2,2.361028790E0,3.333453880E0
1.185802917E0,7.369538248E-1,2.589918923E-1,6.801146494E-1,1.035728573E0
1.195863917E0,-4.444796062E-1,-1.153700379E0,-1.280999819E0,1.780322224E0
1.205924917E0,-8.348210120E-1,-1.619881634E0,-1.495907506E0,2.357685708E0
1.215986917E0,-9.508929205E-1,-1.649859139E0,-1.361980247E-1,1.909131328E0
1.226047917E0,1.851466457E0,-2.768649887E0,2.651731009E0,4.257349831E0
1.236108917E0,4.482051596E0,-2.268447485E0,2.529310487E0,5.624237908E0
1.246170917E0,4.803987595E0,-6.102920240E-1,1.596616440E0,5.099013358E0
1.256231917E0,4.237937359E0,-2.556543016E-1,3.624718219E-2,4.245796279E0
1.266292917E0,2.853168173E0,5.837532663E-1,-7.842608692E-1,3.016024140E0
1.276353917E0,2.704544815E0,5.348322442E-1,-8.922222510E-1,2.897700594E0
1.286415917E0,2.784942276E0,1.101153499E-1,-4.457040131E-1,2.822530946E0
1.296476917E0,4.986593801E0,1.253772844E0,7.352142781E-2,5.142321410E0
1.306537917E0,8.024039900E0,3.719991289E0,7.799320292E-1,8.878729947E0
1.316598917E0,4.138107846E0,5.995520922E0,-1.146817037E0,7.374645550E0
1.326660917E0,1.657551736E0,6.636358801E0,-2.220356475E0,7.191572760E0
1.336721917E0,1.825815892E0,4.754514304E0,2.974770963E-1,5.101715648E0
1.346782917E0,6.197463285E0,4.376681262E0,1.943953621E0,7.832167371E0
1.356844917E0,3.056439609E0,1.024988369E1,4.754153531E0,1.170486713E1
1.366905917E0,8.320494318E-1,1.061254204E1,3.485016835E0,1.120105786E1
1.376966917E0,6.986259109E-1,7.812177735E0,1.100971943E0,7.920248629E0
1.387027917E0,2.278133690E-1,4.134903572E0,3.038366742E-1,4.152305770E0
1.397089917E0,-8.448185813E-1,-1.742867875E-1,1.146978128E-1,8.702010733E-1
1.407150917E0,-3.016528854E0,-4.108394051E0,-4.769645436E-1,5.119164305E0
1.417211917E0,-4.515906975E0,-3.110104769E0,-3.393852603E-1,5.493755531E0
1.427273917E0,-2.977574118E0,1.185686696E0,4.160619919E-1,3.231858312E0
1.437334917E0,-9.189785251E-1,3.604533631E0,1.831206147E-1,3.724341201E0
1.447395917E0,-2.351703358E-1,5.121921176E0,6.955405544E-1,5.174278527E0
1.457456917E0,5.633912880E-1,6.007571449E0,4.050134587E-1,6.047508607E0
1.467518917E0,1.479454026E0,6.625323350E0,-1.313612080E-1,6.789767999E0
1.477579917E0,1.500332971E0,6.339969286E0,5.283051436E-1,6.536460503E0
1.487640917E0,6.450500666E-1,4.963012565E0,1.643469741E0,5.267691724E0
1.497701917E0,-5.787749469E-1,3.085138913E0,3.531465654E0,4.724861079E0
1.507763917E0,-2.579800024E0,5.801092815E-1,5.140850952E0,5.781024429E0
1.517824917E0,-6.087666609E0,-3.625539168E0,6.801233910E0,9.821456190E0
1.527886542E0,-7.501100600E0,-6.588527992E0,7.897782726E0,1.272989329E1
1.537948542E0,-7.613833748E0,-9.118419399E0,9.018122109E0,1.491450848E1
1.548009542E0,-7.146076376E0,-1.013514963E1,9.299018256E0,1.550030342E1
1.558070542E0,-6.250578808E0,-1.027889290E1,8.610293435E0,1.479400310E1
1.568131542E0,-5.179787561E0,-9.304758468E0,7.186512212E0,1.284736109E1
1.578193542E0,-4.641508090E0,-7.515946096E0,6.276557987E0,1.083643037E1
1.588254542E0,-4.458969712E0,-5.476759458E0,5.557634051E0,8.986912779E0
1.598315542E0,-5.611937143E0,-3.756355416E0,6.965342449E0,9.701548327E0
1.608376542E0,-6.276204230E0,-2.079421329E0,7.418646673E0,9.937356342E0
1.618438542E0,-5.601809181E0,-2.127287806E0,4.265647607E0,7.355363282E0
1.628499542E0,-5.478207228E0,-2.354646261E0,2.585882883E0,6.499377180E0
1.638560542E0,-5.458281087E0,-2.405714673E0,1.414247339E0,6.130284744E0
1.648622542E0,-4.962114433E0,-2.695969874E0,6.341436937E-2,5.647552974E0
1.658683542E0,-3.770893348E0,-3.479522499E0,-4.889136212E-1,5.154197318E0
1.668744542E0,-3.047463548E-1,-5.884493991E0,-8.709191487E0,1.051523448E1
1.678805542E0,2.892043387E0,-7.322385131E0,-1.677439520E1,1.853001817E1
1.688867542E0,5.132698179E0,-7.006826105E0,-2.130204748E1,2.300472624E1
1.698928542E0,7.007765168E0,-5.777802771E0,-2.228610347E1,2.406578869E1
1.708989542E0,7.991246375E0,-4.119415467E0,-1.967747579E1,2.163406240E1
1.719051542E0,7.730268184E0,-3.111392034E0,-1.463790446E1,1.684357603E1
1.729112542E0,7.828368090E0,-3.166405270E0,-8.112513535E0,1.170992507E1
1.739173542E0,8.672206678E0,-3.473974368E0,-3.179865561E0,9.868495912E0
1.749234542E0,7.568569867E0,-2.902509610E0,-1.005887738E-1,8.106659606E0
1.759296542E0,4.821655542E0,-1.741042959E0,1.560083914E0,5.358493685E0
1.769357542E0,1.914716958E0,-6.584426755E-1,2.182054728E0,2.976751690E0
1.779418542E0,-5.106010902E-1,-3.633167446E-3,3.538432319E0,3.575084608E0
1.789479542E0,-2.141440406E0,5.230109283E-1,4.894736090E0,5.368216541E0
1.799541542E0,-3.215074570E0,1.066301170E0,5.950068176E0,6.846679047E0
1.809602542E0,-3.692679822E0,1.312096774E0,6.275541741E0,7.398642196E0
1.819663542E0,-3.875285443E0,1.153361533E0,6.279198589E0,7.468360932E0
1.829725542E0,-4.383466371E0,1.049429906E0,5.972226784E0,7.482217139E0
1.839786542E0,-5.041880395E0,1.196932645E0,5.501366880E0,7.557661227E0
1.849847542E0,-4.954086791E0,1.673748231E0,4.957361816E0,7.205542675E0
1.859908542E0,-4.371063842E0,2.325416030E0,3.787604983E0,6.233755716E0
1.869970542E0,-3.962283241E0,2.988300543E0,3.109714760E0,5.856616302E0
1.880031542E0,-3.859784474E0,3.204906554E0,3.196691801E0,5.948798255E0
1.890092542E0,-3.361382430E0,3.183888737E0,3.135430522E0,5.591687035E0
1.900154542E0,-2.532445471E0,2.986021883E0,2.881571023E0,4.861384403E0
1.910215542E0,-1.260342191E0,2.861901575E0,2.312854457E0,3.889503670E0
1.920276542E0,1.306022394E-1,2.800713971E0,1.218380232E0,3.057042048E0
1.930337542E0,1.437767179E0,2.596517799E0,6.873869777E-2,2.968805172E0
1.940399542E0,2.644437193E0,1.890503346E0,-9.614901218E-1,3.389913601E0
1.950460542E0,3.185263125E0,3.369738686E-1,-1.733019702E0,3.641814088E0
1.960521542E0,2.473684462E0,-1.512976406E0,-2.022872029E0,3.535565537E0
1.970582542E0,1.285108657E0,-3.132620350E0,-1.974826628E0,3.919790139E0
1.980644542E0,3.483507961E-1,-4.907490914E0,-2.752587293E0,5.637512941E0
1.990705542E0,-2.928086793E-1,-7.039293355E0,-4.872990003E0,8.566412284E0
2.000766542E0,-1.199696624E0,-8.416610849E0,-5.944523846E0,1.037381193E1
2.010828542E0,-2.670147985E0,-7.552873601E0,-5.048055055E0,9.468814590E0
2.020889542E0,-4.580004737E0,-5.089824640E0,-4.611796634E0,8.255387722E0
2.030950542E0,-6.386440617E0,-2.563635104E0,-5.616052998E0,8.882505277E0
2.041011542E0,-7.161331177E0,-6.202165031E-1,-5.635941133E0,9.134175671E0
2.051073542E0,-7.163945467E0,5.233535752E-1,-5.163702455E0,8.846458991E0
2.061134542E0,-5.927970378E0,1.211117406E0,-4.048175915E0,7.279791647E0
2.071195542E0,-3.309154515E0,-5.139994919E-3,-1.403517113E0,3.594494445E0
2.081257542E0,-9.108266294E-2,-1.554153375E0,-7.845501602E-2,1.558795675E0
2.091318542E0,3.216521171E0,-2.731360439E0,1.063163554E0,4.351626711E0
2.101379542E0,5.768615626E0,-4.242344113E0,3.415372111E0,7.933421486E0
2.111440542E0,8.656446093E0,-5.913679783E0,6.639872392E0,1.240941469E1
2.121502542E0,1.168250065E1,-7.551625221E0,7.975971109E0,1.603508590E1
2.131563542E0,1.611326339E1,-7.298489900E0,5.400918732E0,1.849527332E1
2.141624542E0,2.133402005E1,-5.993557427E0,2.458980761E0,2.229595767E1
2.151685542E0,2.039851233E1,-6.879807039E0,5.628542651E0,2.225110205E1
2.161747542E0,1.864200523E1,-7.531809007E0,7.069519951E0,2.131268680E1
2.171808542E0,1.699145671E1,-6.351568993E0,5.986812079E0,1.910219748E1
2.181869542E0,1.495824534E1,-4.073425654E0,4.307887892E0,1.609036352E1
2.191931542E0,1.347582531E1,-1.196419260E0,5.996600318E-1,1.354211502E1
2.201992542E0,1.322840272E1,1.730154566E0,-3.790562797E0,1.386911820E1
2.212053542E0,1.115587234E1,1.667707765E0,-2.293446379E0,1.151063131E1
2.222114542E0,8.061811743E0,1.321425422E0,-1.540295474E-1,8.170844438E0
2.232176542E0,5.284977216E0,2.411998091E0,-9.463448831E-1,5.885939823E0
2.242237542E0,3.299904805E0,3.943162846E0,-3.038120867E0,5.972276229E0
2.252298542E0,7.218954903E-1,4.684413497E0,-4.438365294E0,6.493377349E0
2.262360542E0,-2.340367945E0,4.267764006E0,-4.692851322E0,6.761211819E0
2.272421542E0,-4.762793961E0,3.223912344E0,-4.310643393E0,7.187451814E0
2.282482542E0,-6.235378971E0,2.305549238E0,-3.360704738E0,7.449150591E0
2.292543542E0,-7.491818145E0,1.777444215E0,-2.095170804E0,7.979748602E0
2.302605542E0,-8.543872574E0,1.775357344E0,-9.432821846E-1,8.777211034E0
2.312666542E0,-9.084977419E0,2.151284486E0,-5.269498686E-1,9.351070303E0
2.322727542E0,-1.027374033E1,5.865551351E0,-4.604039133E-1,1.183918937E1
2.332788542E0,-1.911774639E1,3.055950665E1,7.921351683E-1,3.605550099E1
2.342850542E0,-1.261426849E1,4.712947032E0,8.607324366E-1,1.349342431E1
2.352911542E0,-1.123110729E1,-3.995558868E-1,-1.718583073E0,1.136885850E1
2.362972542E0,-1.145819678E1,-1.112473124E0,-1.853438723E0,1.166032182E1
2.373034542E0,-1.093732213E1,-1.544493775E0,-1.059429084E0,1.109652497E1
2.383095542E0,-1.152154200E1,1.939018279E0,1.690139146E-1,1.168478873E1
2.393156542E0,-1.189812725E1,3.665872969E0,1.231116053E0,1.251078348E1
2.403217542E0,-1.122315742E1,3.180103542E0,1.809616181E0,1.180453437E1
2.413279542E0,-1.066517634E1,1.253939051E0,1.814731471E0,1.089089527E1
2.423340542E0,-1.049934930E1,-8.449575258E-1,1.589946960E0,1.065261566E1
2.433401542E0,-1.017117549E1,-2.696435604E0,1.691994760E0,1.065769310E1
2.443463542E0,-9.983847077E0,-4.015734394E0,1.692362988E0,1.089345756E1
2.453524542E0,-1.033975072E1,-4.603881842E0,1.348463678E0,1.139844407E1
2.463585542E0,-9.830460577E0,-5.128534961E0,7.423284392E-1,1.111264494E1
2.473646542E0,-8.940837121E0,-5.665279537E0,2.176428683E-1,1.058684698E1
2.483708542E0,-7.674784539E0,-5.678255678E0,4.051968420E-1,9.555578986E0
2.493769542E0,-1.043922238E1,-3.896759927E0,1.060672055E0,1.119317324E1
2.503830542E0,-1.265276422E1,-2.557415713E0,1.291990392E0,1.297312826E1
2.513891542E0,-1.121852993E1,-1.861849358E0,1.170316705E0,1.143203998E1
2.523953542E0,-9.913988053E0,-1.135961535E0,1.330156776E-1,9.979742526E0
2.534013708E0,-7.604619121E0,-1.898557593E0,-1.359834319E0,7.955117993E0
2.544074708E0,-5.842570040E0,-1.414188282E0,-8.718701398E-1,6.074183954E0
2.554136708E0,-3.844567680E0,-9.813994525E-1,-2.648013934E-1,3.976677673E0
2.564197708E0,-3.218033845E0,-2.587378308E-1,-5.644934151E-1,3.277398345E0
2.574258708E0,-2.438192448E0,1.184575140E0,-2.719357859E0,3.839649443E0
2.584319708E0,-5.499043196E-1,4.375159231E0,-8.756709470E0,9.804303840E0
2.594381708E0,4.217756864E0,4.221511653E0,-8.640783741E0,1.050113219E1
2.604442708E0,7.980733666E0,2.577451198E0,-4.217860944E0,9.387529786E0
2.614503708E0,1.203220390E1,1.461057516E0,-4.963403159E0,1.309748032E1
2.624565708E0,2.205304514E1,3.616497034E-1,-1.065465369E1,2.449467771E1
2.634626708E0,2.915306651E1,-3.154595649E0,-5.850271407E0,2.990114440E1
2.644687708E0,3.186170028E1,-6.616273030E0,6.604456392E0,3.320484691E1
2.654748708E0,3.641089253E1,-6.560045620E0,8.697997577E0,3.800582134E1
2.664810708E0,3.347490498E1,-2.714394743E0,5.273482760E0,3.399627660E1
2.674871708E0,2.223472515E1,-5.287426615E-1,3.688160801E0,2.254473556E1
2.684932708E0,1.456482830E1,-6.745280734E-1,4.164165963E0,1.516342605E1
2.694993708E0,1.075160520E1,-9.639687565E-1,2.852646602E0,1.116529636E1
2.705055708E0,9.521122988E0,-1.685569255E0,1.278295774E0,9.753305427E0
2.715116708E0,1.006006319E1,-2.525209250E0,-2.197405569E-1,1.037448019E1
2.725177708E0,1.108896733E1,-3.305932115E0,-1.668601220E0,1.169096290E1
2.735239708E0,1.136130607E1,-3.604102983E0,-2.871664671E0,1.226031370E1
2.745300708E0,1.109562497E1,-3.398744384E0,-2.853346514E0,1.195014406E1
2.755361708E0,9.504034501E0,-2.510810189E0,-1.839024167E0,1.000064245E1
2.765422708E0,6.887652249E0,-1.621935469E0,-1.181349231E0,7.173981751E0
2.775484708E0,3.953135272E0,-7.222404760E-1,-1.146737442E0,4.178985110E0
2.785545708E0,1.505259835E0,1.232157442E-1,-1.241106606E0,1.954823495E0
2.795606708E0,-5.146274829E-1,7.545336248E-1,-1.325304172E0,1.609532101E0
2.805668708E0,-1.877772496E0,1.187284447E0,-1.545347761E0,2.706247144E0
2.815729708E0,-2.839098603E0,1.359368589E0,-1.854005903E0,3.653176936E0
2.825790708E0,-4.827620872E0,1.723567824E0,-2.206660835E0,5.580856687E0
2.835851708E0,-6.348843606E0,1.804747204E0,-1.870337176E0,6.860254277E0
2.845913708E0,-7.512457647E0,1.586475760E0,-9.450772798E-1,7.736090505E0
2.855974708E0,-9.154499059E0,1.668055236E0,-1.968753856E-2,9.305248459E0
2.866035708E0,-1.037967200E1,1.302520204E0,7.024728671E-1,1.048463723E1
2.876097708E0,-1.322254966E1,1.733993556E0,1.533614738E0,1.342365551E1
2.886158708E0,-1.278373834E1,1.556545033E0,1.326740248E0,1.294631369E1
2.896219708E0,-1.231544537E1,1.079063449E0,1.291158772E0,1.242986981E1
2.906280708E0,-1.264504356E1,1.008811784E0,1.169757784E0,1.273904082E1
2.916342708E0,-1.272068314E1,9.810616297E-1,8.258398350E-1,1.278515831E1
2.926403708E0,-1.270265150E1,1.165845339E0,3.986573160E-1,1.276226775E1
2.936464708E0,-1.284457161E1,1.389888423E0,5.227048266E-1,1.293012103E1
2.946525708E0,-1.280973624E1,1.604114179E0,7.296611774E-1,1.293038786E1
2.956587708E0,-1.187493251E1,1.358101497E0,6.600920288E-1,1.197055485E1
2.966648708E0,-1.072883147E1,9.401770207E-1,1.004324923E0,1.081667352E1
2.976709708E0,-1.008676041E1,7.003081548E-1,1.176665757E0,1.017927843E1
2.986771708E0,-9.690982264E0,2.818559673E-1,9.554362071E-1,9.742044877E0
2.996832708E0,-9.409998409E0,-6.594022036E-2,7.246768646E-1,9.438091689E0
3.006893708E0,-9.366735445E0,-3.774532655E-1,5.599283476E-1,9.391044863E0
3.016954708E0,-9.354295494E0,-7.820402429E-1,4.119152927E-1,9.395962183E0
3.027016708E0,-9.484839261E0,-1.111338764E0,2.132467854E-1,9.552105729E0
3.037077708E0,-9.781182582E0,-1.305272196E0,-5.614028692E-2,9.868050463E0
3.047138708E0,-1.023446926E1,-1.274828814E0,-3.396225111E-1,1.031915176E1
3.057200708E0,-1.069064447E1,-1.118985314E0,-7.563233113E-1,1.077562213E1
3.067261708E0,-1.098344380E1,-1.003079905E0,-1.380802435E0,1.111525179E1
3.077322708E0,-1.063886153E1,-1.085384143E0,-1.413012407E0,1.078703098E1
3.087383708E0,-9.947762740E0,-7.962785053E-1,3.437987387E-2,9.979640522E0
3.097445708E0,-9.373122944E0,-1.164429143E-1,1.569791754E0,9.504379981E0
3.107506708E0,-8.728932856E0,3.203876567E-1,2.209202912E0,9.009855413E0
3.117567708E0,-7.892637761E0,-1.012423463E-1,1.878603093E0,8.113761792E0
3.127629708E0,-5.647561305E0,-1.459817175E0,-1.811522373E0,6.107997068E0
3.137690708E0,-5.964686215E-1,-4.325711668E-1,-1.060998096E1,1.063553424E1
3.147751708E0,1.552362081E0,3.802048190E-1,-4.710741463E0,4.974481768E0
3.157812708E0,4.863757249E0,-1.308208960E0,-1.121761133E0,5.160028421E0
3.167874708E0,1.828554143E1,-4.319887841E0,-7.470663503E0,2.021962585E1
3.177935708E0,3.441433034E1,-7.585381197E0,-1.609191988E1,3.874059920E1
3.187996708E0,3.665316841E1,-1.131781098E1,-5.538620076E0,3.875853341E1
3.198058708E0,3.512123065E1,-1.321206092E1,6.342033938E0,3.805628451E1
3.208119708E0,3.197280908E1,-9.876436064E0,6.717647377E0,3.413108987E1
3.218180708E0,2.506451089E1,-2.589079556E0,3.726036725E0,2.547187447E1
3.228241708E0,1.765707567E1,4.402968004E-1,6.048683807E0,1.866956771E1
3.238303708E0,1.242349256E1,5.938091616E-1,9.568749729E0,1.569256984E1
3.248364708E0,8.356044804E0,1.209968136E0,8.035018047E0,1.165542889E1
3.258425708E0,6.268038009E0,1.182011428E0,5.478273886E0,8.408147018E0
3.268487708E0,6.898497080E0,3.702632368E-2,2.945424373E0,7.501077099E0
3.278548708E0,9.083323826E0,-2.199748987E0,5.766828132E-1,9.363665436E0
3.288609708E0,1.148445077E1,-4.495052588E0,-1.099367759E0,1.238170896E1
3.298670708E0,1.228503049E1,-5.618310608E0,-2.392106448E0,1.371894899E1
3.308732708E0,1.114921119E1,-5.533066390E0,-3.677619148E0,1.297862152E1
3.318793708E0,8.962141451E0,-4.184761026E0,-4.598670219E0,1.090779410E1
3.328854708E0,6.551616858E0,-2.106019728E0,-4.543870114E0,8.246560384E0
3.338916708E0,5.276803393E0,-4.213415891E-1,-3.602867174E0,6.403345583E0
3.348977708E0,5.013809082E0,4.650506955E-1,-2.219626451E0,5.502844286E0
3.359038708E0,3.827689692E0,1.202790971E0,-1.253985683E0,4.203616847E0
3.369099708E0,1.886177868E0,1.845316941E0,-1.013040710E0,2.826501909E0
3.379161708E0,-4.418653160E-1,2.570202405E0,-1.451104678E0,2.984441345E0
3.389222708E0,-3.042496338E0,3.156744208E0,-1.913606572E0,4.783691888E0
3.399283708E0,-4.522546488E0,3.144053704E0,-1.826976564E0,5.803132240E0
3.409345708E0,-6.461315383E0,3.262493734E0,-2.080631118E0,7.531366921E0
3.419406708E0,-7.947936634E0,3.149648319E0,-1.826469026E0,8.742194826E0
3.429467708E0,-9.241847105E0,3.067741107E0,-1.071070744E0,9.796426183E0
3.439528708E0,-1.032480056E1,3.068105097E0,-1.137528662E-1,1.077161618E1
3.449590708E0,-1.093824131E1,3.068661167E0,8.383176470E-1,1.139142576E1
3.459651708E0,-1.132855933E1,3.064404686E0,1.648107898E0,1.185086884E1
3.469712708E0,-1.155502550E1,3.084193710E0,2.190902588E0,1.215857390E1
3.479774708E0,-1.165197467E1,3.127786457E0,2.449945936E0,1.231071878E1
3.489835708E0,-1.167178621E1,3.128397784E0,2.613816494E0,1.236323189E1
3.499896708E0,-1.180601723E1,3.098894780E0,2.492054075E0,1.245774960E1
3.509957708E0,-1.166289142E1,3.072580263E0,2.235607037E0,1.226628406E1
3.520019708E0,-1.129916187E1,3.101031937E0,2.130346484E0,1.190906521E1
3.530081042E0,-1.094687414E1,3.163347761E0,2.047282985E0,1.157722722E1
3.540142042E0,-1.069662500E1,3.223672608E0,1.964519156E0,1.134324412E1
3.550203042E0,-1.069617126E1,3.330113275E0,1.913609057E0,1.136484200E1
3.560265042E0,-1.080708125E1,3.300756744E0,1.856835663E0,1.145145575E1
3.570326042E0,-1.091913963E1,3.211557762E0,1.910468079E0,1.154086659E1
3.580387042E0,-1.100487618E1,2.998699816E0,1.888166214E0,1.156134387E1
3.590449042E0,-1.094853241E1,2.786568680E0,1.806244384E0,1.144105964E1
3.600510042E0,-1.071333284E1,2.545583580E0,1.887417186E0,1.117219047E1
3.610571042E0,-1.057612558E1,2.206693871E0,1.732548709E0,1.094192192E1
3.620632042E0,-1.049547377E1,1.882922139E0,1.457528137E0,1.076219093E1
3.630694042E0,-1.031511289E1,1.733527825E0,1.533436690E0,1.057157040E1
3.640755042E0,-9.950182317E0,1.956669561E0,2.368150114E0,1.041358818E1
3.650816042E0,-9.346283639E0,2.198321536E0,2.940430266E0,1.004150216E1
3.660878042E0,-8.987144730E0,2.110497526E0,3.208435349E0,9.773281311E0
3.670939042E0,-8.718681518E0,1.894643759E0,3.405956925E0,9.550163609E0
3.681000042E0,-8.396035666E0,1.410929336E0,3.407335113E0,9.170281843E0
3.691061042E0,-6.830123248E0,-2.462934941E-2,1.085052606E0,6.915817330E0
3.701123042E0,-1.989405783E0,-3.055034231E0,-1.037778101E1,1.099951400E1
3.711184042E0,3.076342946E0,-4.355685664E0,-2.543701829E1,2.598995543E1
3.721245042E0,3.766733639E0,-3.330231681E0,-1.768903655E1,1.838969112E1
3.731307042E0,-3.460054779E-1,-2.144192106E0,-3.750377807E-1,2.204071894E0
3.741368042E0,1.116466772E0,-3.032566597E0,1.458654603E0,3.545508633E0
3.751429042E0,4.156392674E0,-4.351071627E0,-7.859827280E-1,6.068376489E0
3.761490042E0,8.064248863E0,-5.912075892E0,-3.948456038E0,1.075058399E1
3.771552042E0,1.788367165E1,-8.365548284E0,-9.487955242E0,2.190500866E1
3.781613042E0,2.740825970E1,-1.119641693E1,1.675552682E0,2.965434081E1
3.791674042E0,3.716135460E1,-1.329430786E1,1.160070278E1,4.113734559E1
3.801736042E0,4.079049448E1,-1.143907521E1,1.316881492E1,4.436366270E1
3.811797042E0,3.749155622E1,-6.678320759E0,1.241129059E1,4.005317578E1
3.821858042E0,2.975879595E1,-4.124388378E-1,9.612842413E0,3.127559402E1
3.831919042E0,2.060197906E1,3.001065600E0,5.703342572E0,2.158647846E1
3.841981042E0,1.354282739E1,3.545397815E0,1.317198762E0,1.406104662E1
3.852042042E0,9.302178676E0,2.869726903E0,-6.009977286E-1,9.753310151E0
3.862103042E0,7.046822814E0,1.658535676E0,-5.772770365E-1,7.262348184E0
3.872165042E0,6.984806076E0,8.148635879E-2,-4.630959713E-1,7.000615246E0
3.882226042E0,7.777071052E0,-1.086414569E0,-6.700474982E-1,7.881122662E0
3.892287042E0,7.519904076E0,-1.424694267E0,-1.428461920E0,7.785834221E0
3.902348042E0,6.563718256E0,-1.401813527E0,-2.222959363E0,7.070291850E0
3.912410042E0,4.971337831E0,-1.290827234E0,-2.397083598E0,5.668019456E0
3.922471042E0,3.473116874E0,-1.136035649E0,-2.068143804E0,4.198849439E0
3.932532042E0,2.161647799E0,-6.269171199E-1,-1.308550730E0,2.603469088E0
3.942594042E0,3.033360064E-2,2.018916388E-1,-1.005557370E0,1.026073090E0
3.952655042E0,-2.187155108E0,9.622211699E-1,-1.253338981E0,2.698217124E0
3.962716042E0,-3.098430803E0,1.448018517E0,-9.762768531E-1,3.556704593E0
3.972777042E0,-5.489825061E0,2.047301258E0,-1.445452759E0,6.034811954E0
3.982839042E0,-7.061726782E0,2.329708033E0,-1.973885518E0,7.693617401E0
3.992900042E0,-8.515975508E0,2.610398211E0,-2.545136268E0,9.263570386E0
4.002961042E0,-1.008013435E1,2.858019608E0,-2.654955164E0,1.080861561E1
4.013023042E0,-1.106818749E1,2.889427927E0,-2.328850100E0,1.167377878E1
4.023084042E0,-1.185567178E1,2.925324569E0,-2.480967754E0,1.246072543E1
4.033145042E0,-1.242619397E1,2.965952777E0,-2.469644036E0,1.301177598E1
4.043206042E0,-1.254923927E1,3.020383923E0,-2.014179851E0,1.306380671E1
4.053268042E0,-1.248420303E1,2.992661981E0,-1.140622205E0,1.288845879E1
4.063329042E0,-1.229263655E1,3.018097369E0,6.902645387E-2,1.265790621E1
4.073390042E0,-1.174493254E1,3.085080441E0,1.123133256E0,1.219518716E1
4.083451042E0,-1.123674167E1,3.133131689E0,1.807826933E0,1.180462264E1
4.093513042E0,-1.095633143E1,3.238959568E0,2.049864385E0,1.160749764E1
4.103574042E0,-1.077838779E1,3.325884276E0,2.150062126E0,1.148294025E1
4.113635042E0,-1.048483184E1,3.379977453E0,2.308065441E0,1.125535927E1
4.123697042E0,-1.015438229E1,3.413220336E0,2.363854749E0,1.097038568E1
4.133758042E0,-9.957616467E0,3.377747910E0,2.453798082E0,1.079742709E1
4.143819042E0,-9.855227044E0,3.378646627E0,2.646910565E0,1.074927387E1
4.153880042E0,-9.805279543E0,3.259194443E0,2.738895746E0,1.068959331E1
4.163942042E0,-9.756581007E0,3.128410355E0,2.821428025E0,1.062724237E1
4.174003042E0,-9.689016430E0,3.007808901E0,2.788813718E0,1.052147498E1
4.184064042E0,-9.525896655E0,2.888973598E0,2.763974161E0,1.033094520E1
4.194126042E0,-9.321199669E0,2.718837749E0,2.793181296E0,1.010340060E1
4.204187042E0,-9.063870140E0,2.493891563E0,2.867441519E0,9.828298830E0
4.214248042E0,-8.809608060E0,2.298624088E0,3.025763361E0,9.594170667E0
4.224309042E0,-8.419125152E0,2.135638799E0,3.067529146E0,9.211533882E0
4.234371042E0,-7.973170293E0,1.921931253E0,3.069462235E0,8.757103555E0
4.244432042E0,-7.504810658E0,1.573864339E0,3.014760363E0,8.239418185E0
4.254493042E0,-5.934827408E0,9.646578509E-1,1.756640992E0,6.264066467E0
4.264555042E0,-2.076500060E0,3.719413877E-3,-4.054661355E0,4.555452232E0
4.274616042E0,1.509234188E0,-5.955304357E-1,-1.117988451E1,1.129700235E1
4.284677042E0,6.278613868E0,-1.462735375E0,-1.709862799E1,1.827357835E1
4.294738042E0,5.347332509E0,-1.956859596E0,-8.429701595E0,1.017266599E1
4.304800042E0,4.712709635E-1,-2.564847232E0,2.267989648E0,3.456054787E0
4.314861042E0,1.866211381E0,-3.625112906E0,4.343090762E0,5.957065206E0
4.324922042E0,1.040822863E1,-5.506278541E0,2.123170781E0,1.196487279E1
4.334984042E0,2.820409382E1,-8.900736331E0,-1.015108329E1,3.126881045E1
4.345045042E0,4.289187152E1,-1.194110662E1,-1.787544228E1,4.797743330E1
4.355106042E0,4.154170732E1,-1.296510962E1,2.963575592E0,4.361869204E1
4.365167042E0,4.054979502E1,-9.441833575E0,1.164269982E1,4.323177716E1
4.375229042E0,3.508298518E1,-3.366866534E0,1.120274128E1,3.698179352E1
4.385290042E0,2.016017514E1,5.085539800E-1,7.073892499E0,2.137127146E1
4.395351042E0,9.406214676E0,1.516632377E0,3.937849481E0,1.030939896E1
4.405413042E0,5.070644603E0,1.264252955E0,4.878237294E0,7.148913996E0
4.415474042E0,3.154288085E0,5.007463391E-1,4.252212167E0,5.318043675E0
4.425535042E0,1.825529378E0,1.501541591E-1,1.911196496E0,2.647220397E0
4.435596042E0,2.826362198E0,-1.795836340E-1,-4.773795497E-1,2.872014065E0
4.445658042E0,4.532596682E0,-5.301841463E-1,-1.839403067E0,4.920257265E0
4.455719042E0,5.027367021E0,-5.052326153E-1,-2.231802839E0,5.523642192E0
4.465780042E0,4.805931210E0,-3.713419019E-1,-1.840250913E0,5.159592331E0
4.475842042E0,4.130649138E0,-8.651496425E-2,-1.397583944E0,4.361535053E0
4.485903042E0,3.095659223E0,2.195131002E-1,-1.214067838E0,3.332454462E0
4.495964042E0,1.796820134E0,5.663887900E-1,-1.297909967E0,2.287778210E0
4.506025042E0,3.426029831E-1,9.164639300E-1,-1.732066898E0,1.989306080E0
4.516087042E0,-1.166379774E0,1.308253106E0,-2.114879429E0,2.746758630E0
4.526147667E0,-3.176167197E0,1.859423641E0,-2.625294578E0,4.520803685E0
4.536208667E0,-4.407273894E0,2.062640112E0,-2.629139707E0,5.530906165E0
4.546269667E0,-5.633960681E0,2.202383596E0,-2.576366247E0,6.574927338E0
4.556331667E0,-7.136886892E0,2.439361599E0,-2.693519890E0,8.008788231E0
4.566392667E0,-7.866438142E0,2.554383640E0,-2.111466994E0,8.536042273E0
4.576453667E0,-8.663293768E0,2.672787710E0,-1.446966019E0,9.180967471E0
4.586515667E0,-9.423405490E0,2.770732373E0,-7.027289021E-1,9.847403557E0
4.596576667E0,-1.001783577E1,2.856194985E0,-2.177012308E-1,1.041932230E1
4.606637667E0,-1.053018050E1,2.936621974E0,3.525405088E-2,1.093204889E1
4.616698667E0,-1.087343545E1,2.986237353E0,3.984725440E-1,1.128308435E1
4.626760667E0,-1.125862429E1,3.087957271E0,5.814752277E-1,1.168889278E1
4.636821667E0,-1.147078934E1,3.202439029E0,7.277339351E-1,1.193164785E1
4.646882667E0,-1.153251723E1,3.286318799E0,9.255755731E-1,1.202728294E1
4.656944667E0,-1.156277306E1,3.383838954E0,1.089490716E0,1.209690361E1
4.667005667E0,-1.140826272E1,3.449484767E0,1.225774110E0,1.198123223E1
4.677066667E0,-1.096675935E1,3.508686949E0,1.315469155E0,1.158926891E1
4.687127667E0,-1.049381082E1,3.570787595E0,1.323333660E0,1.116341353E1
4.697189667E0,-1.012510879E1,3.593273355E0,1.412220694E0,1.083622668E1
4.707250667E0,-9.909746482E0,3.554547246E0,1.619305683E0,1.065176194E1
4.717311667E0,-9.780721237E0,3.487494885E0,1.878055355E0,1.055235615E1
4.727373667E0,-9.742198026E0,3.442046524E0,2.062300243E0,1.053618474E1
4.737434667E0,-9.697689605E0,3.409644763E0,2.162132095E0,1.050455503E1
4.747495667E0,-9.596650888E0,3.318765876E0,2.195401582E0,1.038892214E1
4.757556667E0,-9.513385953E0,3.183423007E0,2.308564939E0,1.029408405E1
4.767618667E0,-9.462367242E0,3.004425994E0,2.571593750E0,1.025553820E1
4.777679667E0,-9.333112786E0,2.830049745E0,2.873386091E0,1.016722791E1
4.787740667E0,-9.105968923E0,2.699864119E0,3.057662554E0,9.977837270E0
4.797801667E0,-8.774035354E0,2.504328842E0,3.042143459E0,9.618211693E0
4.807863667E0,-7.529141507E0,1.643058535E0,2.171315585E0,8.006386486E0
4.817924667E0,-5.885652325E0,8.015275508E-1,1.071510162E0,6.035849876E0
4.827985667E0,-4.799588735E0,2.405234617E-1,-2.100705779E-1,4.810200953E0
4.838047667E0,-2.570999672E0,-4.932027000E-1,-4.942472466E0,5.592970794E0
4.848108667E0,2.701692544E0,-1.791119976E0,-1.343052109E1,1.381615540E1
4.858169667E0,7.277076811E0,-2.832248590E0,-1.658266968E1,1.832927747E1
4.868230667E0,3.775094572E0,-3.950991098E0,-3.470551701E0,6.473515181E0
4.878292667E0,1.293097357E1,-6.587701780E0,-1.871572254E0,1.463252114E1
4.888353667E0,2.945345435E1,-1.140063679E1,-4.064469767E0,3.184337304E1
4.898414667E0,4.437166615E1,-1.602787299E1,7.377797440E-2,4.717777986E1
4.908476667E0,5.126095854E1,-1.682690203E1,6.053803629E0,5.429069018E1
4.918537667E0,4.709403620E1,-1.198369189E1,1.141895377E1,4.991842968E1
4.928598667E0,3.205411344E1,-4.415374042E0,1.545812381E1,3.585966129E1
4.938659667E0,1.617209574E1,2.929453580E-1,1.200649837E1,2.014394452E1
4.948721667E0,7.401914865E0,1.852842015E0,6.602095871E0,1.009004644E1
4.958782667E0,3.492724927E0,2.017716539E0,3.176536156E0,5.134266199E0
4.968843667E0,1.651693996E0,2.011589973E0,1.049869909E0,2.806566247E0
4.978905667E0,1.188530781E0,2.068238821E0,-1.022500335E0,2.595327374E0
4.988966667E0,2.481479385E0,2.040437065E0,-2.895004417E0,4.324601014E0
4.999027667E0,3.751991054E0,1.545640414E0,-4.547129352E0,6.094491488E0
5.009088667E0,3.837990732E0,2.020806500E-1,-4.661271679E0,6.041395792E0
5.019150667E0,3.065111030E0,-2.930447607E-1,-3.596731106E0,4.734686421E0
5.029211667E0,2.052311298E0,-2.771793643E-1,-2.581578455E0,3.309585682E0
5.039272667E0,1.281785100E0,-2.740592900E-1,-2.011194263E0,2.400621565E0
5.049334667E0,1.544670653E-1,8.246342853E-2,-1.878422706E0,1.886566234E0
5.059395667E0,-1.220986921E0,5.887478118E-1,-2.099635738E0,2.499180522E0
5.069456667E0,-2.608641123E0,1.187965356E0,-2.652125112E0,3.905129678E0
5.079517667E0,-4.406758170E0,1.771574927E0,-3.199876487E0,5.726884390E0
5.089579667E0,-5.533254671E0,2.230407108E0,-3.341027688E0,6.837696186E0
5.099640667E0,-6.691538390E0,2.510004442E0,-3.227806882E0,7.841909563E0
5.109701667E0,-8.267219167E0,2.827146894E0,-3.517525892E0,9.418739869E0
5.119762667E0,-9.176186966E0,3.034062607E0,-3.102439654E0,1.015052092E1
5.129824667E0,-9.614169146E0,3.090238854E0,-2.290392963E0,1.035508206E1
5.139885667E0,-1.038439070E1,3.207417056E0,-1.368463640E0,1.095425886E1
5.149946667E0,-1.048149191E1,3.182543001E0,2.803733875E-1,1.095759379E1
5.160008667E0,-1.055581119E1,3.164682096E0,1.404663752E0,1.110916031E1
5.170069667E0,-1.068073461E1,3.161939752E0,1.752733297E0,1.127599347E1
5.180130667E0,-1.078442446E1,3.157566911E0,1.621560370E0,1.135356762E1
5.190191667E0,-1.091365377E1,3.079121836E0,1.304814359E0,1.141452454E1
5.200253667E0,-1.100648299E1,2.983050621E0,9.125246608E-1,1.144001574E1
5.210314667E0,-1.105292626E1,2.872746990E0,6.199732590E-1,1.143696730E1
5.220375667E0,-1.117071491E1,2.680397569E0,3.120869493E-1,1.149203207E1
5.230437667E0,-1.122907012E1,2.519559670E0,9.855836470E-2,1.150868848E1
5.240498667E0,-1.118159307E1,2.400442531E0,1.105825424E-2,1.143635738E1
5.250559667E0,-1.110013434E1,2.300180617E0,-5.292899609E-2,1.133607581E1
5.260620667E0,-1.112186142E1,2.198022158E0,-3.359108448E-1,1.134195481E1
5.270682667E0,-1.133677350E1,1.817654056E0,-1.595953220E0,1.159195265E1
5.280743667E0,-1.101139699E1,8.777866450E-1,-5.445832365E0,1.231578107E1
5.290804667E0,-9.621445422E0,1.898438895E-1,-5.923616542E0,1.130033122E1
5.300866667E0,-8.551875658E0,7.170516568E-1,-8.896493299E-1,8.627874378E0
5.310927667E0,-8.098689548E0,1.710695325E0,2.036039374E0,8.524125012E0
5.320988667E0,-8.107358630E0,2.410498865E0,3.001907599E0,8.975033034E0
5.331049667E0,-7.912743412E0,2.336062348E0,3.420305115E0,8.931247543E0
5.341111667E0,-7.269970105E0,2.054578848E0,3.680148654E0,8.403407267E0
5.351172667E0,-6.254102340E0,1.610917268E0,3.825869454E0,7.506405771E0
5.361233667E0,-4.905216347E0,1.015226911E0,3.407921004E0,6.058527764E0
5.371295667E0,-2.179802234E0,1.470180050E-1,2.215899435E0,3.111810145E0
5.381356667E0,3.148106409E0,-1.750942734E0,9.530321243E-1,3.726210494E0
5.391417667E0,1.164233261E1,-4.631092445E0,5.291310628E-1,1.254076974E1
5.401478667E0,2.330531058E1,-8.297218891E0,-1.105164543E0,2.476293058E1
5.411540667E0,3.825746663E1,-1.164343423E1,-1.047319237E1,4.133873573E1
5.421601667E0,5.672577564E1,-1.513126562E1,-4.115531396E1,7.169748035E1
5.431662667E0,4.147946021E1,-1.329187542E1,-1.386976217E0,4.357916101E1
5.441724667E0,2.292721324E1,-7.155224345E0,1.940394538E1,3.087664876E1
5.451785667E0,1.404141713E1,-2.287531335E0,1.806818756E1,2.299681709E1
5.461846667E0,7.971648847E0,7.775386908E-1,1.534196770E1,1.730686929E1
5.471907667E0,3.710821978E0,2.750241683E0,9.848259501E0,1.087760287E1
5.481969667E0,2.520884356E0,3.937584018E0,4.383740605E0,6.409103489E0
5.492030667E0,4.907193291E0,3.521034806E0,3.923343709E0,7.202142595E0
5.502091667E0,8.396969467E0,2.221252707E0,3.864141819E0,9.506558358E0
5.512152667E0,1.062285185E1,1.511785182E0,2.068249054E0,1.092740271E1
5.522214667E0,1.067498563E1,1.088522928E0,-1.078234752E0,1.078437715E1
5.532275417E0,9.220329351E0,6.316818698E-1,-4.031853998E0,1.008312164E1
5.542336417E0,7.875732876E0,3.916456273E-1,-5.458166481E0,9.590210424E0
5.552398417E0,6.614080324E0,4.596244794E-1,-4.933411621E0,8.264131135E0
5.562459417E0,5.339079164E0,3.866051812E-1,-3.673958791E0,6.492549814E0
5.572520417E0,3.886043735E0,3.999333246E-1,-2.629655432E0,4.709179362E0
5.582581417E0,1.703699132E0,6.502935572E-1,-2.182955638E0,2.844427492E0
5.592643417E0,-3.345630616E-1,8.782585153E-1,-2.182362730E0,2.376126585E0
5.602704417E0,-2.126690220E0,9.886595017E-1,-2.138125620E0,3.173616245E0
5.612765417E0,-3.765560687E0,1.218751092E0,-1.976908529E0,4.424134813E0
5.622827417E0,-5.653829520E0,1.694154575E0,-2.202566614E0,6.299781556E0
5.632888417E0,-6.926742640E0,1.972709059E0,-2.073028568E0,7.494584182E0
5.642949417E0,-8.098057464E0,2.114441034E0,-1.663164479E0,8.533200552E0
5.653010417E0,-8.788516569E0,2.153949793E0,-7.864896816E-1,9.082735778E0
5.663072417E0,-9.043685551E0,2.286114116E0,4.740080452E-1,9.340195380E0
5.673133417E0,-9.545766664E0,2.387210575E0,1.114569350E0,9.902661277E0
5.683194417E0,-1.009725149E1,2.437844685E0,1.646208723E0,1.051701371E1
5.693256417E0,-1.066755733E1,2.475373723E0,1.785441452E0,1.109558721E1
5.703317417E0,-1.114371598E1,2.487285671E0,1.822484733E0,1.156245849E1
5.713378417E0,-1.147381703E1,2.454202124E0,1.712210923E0,1.185762419E1
5.723439417E0,-1.133392707E1,2.374999542E0,1.586398723E0,1.168824994E1
5.733501417E0,-1.084363336E1,2.340696267E0,1.499099647E0,1.119421919E1
5.743562417E0,-1.046186163E1,2.338266018E0,1.450357404E0,1.081765101E1
5.753623417E0,-1.027726737E1,2.345001864E0,1.534101373E0,1.065245162E1
5.763685417E0,-1.020068990E1,2.315460122E0,1.763782342E0,1.060784418E1
5.773746417E0,-1.009800812E1,2.258620070E0,1.915360737E0,1.052329508E1
5.783807417E0,-9.993724194E0,2.240619855E0,2.067720612E0,1.044846252E1
5.793868417E0,-9.851765492E0,2.208664091E0,2.278238940E0,1.035016198E1
5.803930417E0,-9.729855723E0,2.190709923E0,2.519994118E0,1.028686895E1
5.813991417E0,-9.691304446E0,2.072925365E0,2.771615303E0,1.029078485E1
5.824052417E0,-9.639927301E0,1.890965861E0,3.081226541E0,1.029552851E1
5.834114417E0,-9.531025833E0,1.720909680E0,3.436303681E0,1.027668072E1
5.844175417E0,-9.423797838E0,1.521542869E0,3.847908779E0,1.029220386E1
5.854236417E0,-9.213512083E0,1.348583546E0,4.241484573E0,1.023218813E1
5.864297417E0,-8.969791948E0,1.224471862E0,4.553357806E0,1.013358605E1
5.874359417E0,-8.716307548E0,1.194659979E0,4.725981353E0,9.986797760E0
5.884420417E0,-8.421010294E0,1.137910412E0,4.786009161E0,9.752647752E0
5.894481417E0,-7.523802999E0,6.432973637E-1,4.715691131E0,8.902762825E0
5.904543417E0,-6.188090783E0,5.033020109E-2,4.136658906E0,7.443584323E0
5.914604417E0,-6.355999428E0,6.794142991E-2,3.030556616E0,7.041847639E0
5.924665417E0,-6.025143501E0,-4.772251832E-1,1.796413460E0,6.305331031E0
5.934726417E0,-2.586232254E0,-1.641291068E0,1.413977490E0,3.373687298E0
5.944788417E0,1.811184404E0,-2.871537494E0,-2.555078874E0,4.249063964E0
5.954849417E0,2.423834142E1,-4.285046622E0,-3.365619907E1,4.169650532E1
5.964910417E0,3.485666753E1,-8.976274756E0,-2.000411529E1,4.117918659E1
5.974972417E0,4.013644833E1,-1.378004191E1,6.303316015E0,4.290169964E1
5.985033417E0,5.223955791E1,-1.604294244E1,1.010804778E1,5.557445494E1
5.995094417E0,5.034889113E1,-1.209164787E1,1.106729053E1,5.295001139E1
6.005155417E0,3.369069063E1,-4.428457772E0,1.041895477E1,3.554192583E1
6.015217417E0,1.905400356E1,-1.932564561E0,9.370117475E0,2.132109188E1
6.025278417E0,9.395607242E0,2.138604507E-1,6.306392820E0,1.131785148E1
6.035339417E0,3.108257634E0,3.355026507E0,3.131558204E-1,4.584270383E0
6.045401417E0,1.182830915E0,7.074099491E0,-1.139619875E1,1.346533767E1
6.055462417E0,1.262505076E0,6.681847799E0,-8.847839495E0,1.115908925E1
6.065523417E0,3.066196858E0,2.912956831E0,1.477820606E0,4.480048483E0
6.075584417E0,6.123798893E0,1.557332360E0,2.704351273E0,6.873115216E0
6.085646417E0,6.049325831E0,-3.421827145E-1,1.177527418E0,6.172357964E0
6.095707417E0,3.201023126E0,-1.984025760E0,-2.140476201E0,4.331806278E0
6.105768417E0,5.725827456E-1,-2.618369136E0,-5.629031478E0,6.234557187E0
6.115830417E0,-9.684024078E-1,-2.644766391E0,-6.475109550E0,7.061135615E0
6.125891417E0,-1.182644974E0,-1.950900991E0,-4.719265534E0,5.241767926E0
6.135952417E0,-8.601950043E-1,-1.254373792E0,-2.853183961E0,3.233271991E0
6.146013417E0,-1.436031141E0,-5.206276032E-1,-1.804544306E0,2.364237444E0
6.156075417E0,-2.500813789E0,3.264598440E-1,-1.205506418E0,2.795333855E0
6.166136417E0,-4.227048674E0,1.040839323E0,-1.168657265E0,4.507443488E0
6.176197417E0,-5.959628958E0,1.580012979E0,-1.495968025E0,6.344410033E0
6.186259417E0,-6.303259882E0,1.800050282E0,-1.878663611E0,6.819138004E0
6.196320417E0,-8.116686693E0,2.270229132E0,-2.912970572E0,8.917395401E0
6.206381417E0,-8.703417361E0,2.349063340E0,-2.133270092E0,9.263822841E0
6.216442417E0,-8.527858220E0,2.117860778E0,5.008291868E-1,8.801166398E0
6.226504417E0,-9.031901658E0,2.188068881E0,2.179369540E0,9.545289130E0
6.236565417E0,-9.412396937E0,2.264200945E0,3.012789559E0,1.013887188E1
6.246626417E0,-9.869983077E0,2.330762140E0,3.377702594E0,1.068914837E1
6.256688417E0,-1.044524151E1,2.408621032E0,3.560277225E0,1.129513609E1
6.266749417E0,-1.081563689E1,2.455328591E0,3.669274002E0,1.168204655E1
6.276810417E0,-1.084178681E1,2.532445179E0,3.450390501E0,1.165602052E1
6.286871417E0,-1.065427596E1,2.516955905E0,3.222503749E0,1.141197589E1
6.296933417E0,-1.039030575E1,2.536549632E0,2.896914117E0,1.108082348E1
6.306994417E0,-1.010708884E1,2.506101426E0,2.538614284E0,1.071813191E1
6.317055417E0,-1.013925204E1,2.348095041E0,2.213122154E0,1.064029566E1
6.327117417E0,-1.021836720E1,2.281616731E0,2.059886658E0,1.067070458E1
6.337178417E0,-1.028321867E1,2.217102061E0,2.083964031E0,1.072394675E1
6.347239417E0,-1.039723704E1,2.051667666E0,2.164461187E0,1.081650454E1
6.357300417E0,-1.044142912E1,1.883532588E0,2.199751472E0,1.083559153E1
6.367362417E0,-1.040036530E1,1.583080428E0,1.963823630E0,1.070188512E1
6.377423417E0,-1.009533711E1,1.178943540E0,1.819515224E0,1.032552056E1
6.387484417E0,-9.776651575E0,1.072750064E0,2.112491426E0,1.005963860E1
6.397546417E0,-9.580166418E0,9.633947061E-1,2.011863184E0,9.836427778E0
6.407607417E0,-9.156379523E0,5.314899758E-1,1.211579628E0,9.251469762E0
6.417668417E0,-8.973963937E0,3.565474230E-1,1.076422408E0,9.045321443E0
6.427729417E0,-8.977233115E0,3.011956331E-1,1.288561731E0,9.074239612E0
6.437791417E0,-7.622212808E0,1.999206886E-2,5.655891833E-1,7.643194286E0
6.447852417E0,-5.834082806E0,-3.432928084E-1,-1.098961816E0,5.946603166E0
6.457913417E0,-3.288509751E0,-7.931233478E-1,-1.347775022E0,3.641406121E0
6.467975417E0,6.173263414E0,-2.309930703E0,-1.511181077E1,1.648671543E1
6.478036417E0,1.863012252E1,-5.115160040E0,-2.265164566E1,2.977151959E1
6.488097417E0,2.768340394E1,-9.537657745E0,-6.202184912E0,2.992999944E1
6.498158417E0,4.099217196E1,-1.342806409E1,7.883730698E0,4.385002026E1
6.508220417E0,5.327818245E1,-1.495753900E1,1.062960773E1,5.634963406E1
6.518281417E0,4.962211965E1,-9.649097489E0,8.903692099E0,5.132967537E1
6.528342958E0,2.790425328E1,-2.779216098E0,9.796359615E0,2.970420938E1
6.538404958E0,1.243876549E1,-8.356811374E-2,9.701154081E0,1.577473489E1
6.548465958E0,5.678423494E0,8.687070885E-1,7.996707090E0,9.846139836E0
6.558526958E0,2.572028198E0,7.228918558E-1,6.015093307E0,6.581736031E0
6.568587958E0,1.721069455E0,2.011807635E-1,3.920905420E0,4.286729882E0
6.578649958E0,2.287709675E0,3.772339949E-1,1.801371753E0,2.936130317E0
6.588710958E0,4.159235591E0,1.309439799E0,-1.071056710E0,4.490104204E0
6.598771958E0,7.236153318E0,2.205454408E0,-5.711037508E0,9.478496369E0
6.608833958E0,9.299833943E0,1.023954319E0,-8.139976737E0,1.240139569E1
6.618894958E0,7.447210906E0,-1.400633851E0,-5.217233130E0,9.200122119E0
6.628955958E0,4.416869175E0,-2.100866138E0,-2.843191069E0,5.657394038E0
6.639016958E0,2.067187200E0,-1.662085813E0,-2.491069404E0,3.638848574E0
6.649078958E0,7.480009693E-1,-1.222649869E0,-2.263259543E0,2.678940446E0
6.659139958E0,-1.643055904E-1,-7.174046825E-1,-1.835824571E0,1.977856835E0
6.669200958E0,-1.398055229E0,-1.299665008E-1,-1.496682554E0,2.052195991E0
6.679262958E0,-2.710646385E0,4.501002422E-1,-9.631825253E-1,2.911685874E0
6.689323958E0,-3.875222293E0,1.033938586E0,-4.256584422E-1,4.033306575E0
6.699384958E0,-5.381913527E0,1.599732714E0,-1.949670736E-1,5.618020125E0
6.709446958E0,-6.333074834E0,1.849507201E0,2.490211471E-1,6.602312116E0
6.719507958E0,-7.216026033E0,2.026805597E0,4.211631759E-1,7.507086722E0
6.729568958E0,-8.453908483E0,2.277612411E0,-5.551112652E-2,8.755522168E0
6.739629958E0,-9.267093043E0,2.529436494E0,-5.594767598E-1,9.622373756E0
6.749691958E0,-1.060660595E1,2.975346914E0,-1.682781887E0,1.114381146E1
6.759752958E0,-1.143531077E1,3.222500826E0,-2.039619917E0,1.205449682E1
6.769813958E0,-1.181831159E1,3.270312631E0,-1.706452585E0,1.238060636E1
6.779875958E0,-1.186023729E1,3.297672923E0,-8.278933040E-1,1.233796104E1
6.789936958E0,-1.177700568E1,3.361772439E0,4.039490461E-2,1.224748989E1
6.799997958E0,-1.169383723E1,3.386641232E0,7.089304590E-1,1.219498874E1
6.810058958E0,-1.145988545E1,3.416586578E0,1.146175890E0,1.201314936E1
6.820120958E0,-1.102774113E1,3.455381100E0,1.158100848E0,1.161429854E1
6.830181958E0,-1.084063725E1,3.331387968E0,1.122202306E0,1.139635467E1
6.840242958E0,-1.076534031E1,3.173315510E0,1.189530509E0,1.128616260E1
6.850304958E0,-1.066856772E1,2.993682320E0,1.391735559E0,1.116769443E1
6.860365958E0,-1.068255894E1,2.775378571E0,1.753937093E0,1.117569179E1
6.870426958E0,-1.069951587E1,2.539420615E0,2.113919024E0,1.119807798E1
6.880487958E0,-1.055029492E1,2.415659325E0,2.515007612E0,1.111167837E1
6.890549958E0,-1.015823911E1,2.312860304E0,2.807261391E0,1.078980358E1
6.900610958E0,-1.004191227E1,2.125979491E0,2.879140044E0,1.066063967E1
6.910671958E0,-9.951371641E0,2.094408620E0,2.880445142E0,1.056945170E1
6.920733958E0,-9.718170648E0,2.257812277E0,3.033742764E0,1.042804642E1
6.930794958E0,-9.444232687E0,2.367695200E0,3.120931182E0,1.022446688E1
6.940855958E0,-9.088507968E0,2.360701930E0,3.065174472E0,9.877711538E0
6.950916958E0,-8.435054137E0,2.266616137E0,2.733139454E0,9.151925386E0
6.960978958E0,-7.055155681E0,1.951495068E0,1.646240298E0,7.502910222E0
6.971039958E0,-4.261965907E0,1.119337462E0,4.221061125E-1,4.426674070E0
6.981100958E0,-2.307913560E-1,-1.903656073E-1,7.580704594E-1,8.149690398E-1
6.991162958E0,1.114569818E1,-3.552490488E0,-1.683876018E1,2.050342950E1
7.001223958E0,2.797641727E1,-7.414000475E0,-3.486327956E1,4.531109785E1
7.011284958E0,2.730107088E1,-8.763468851E0,-1.051684593E0,2.869238397E1
7.021346958E0,3.006823762E1,-9.274334235E0,9.678378006E0,3.292086253E1
7.031407958E0,3.671849584E1,-1.002906593E1,9.856686509E0,3.931900773E1
7.041468958E0,4.153292715E1,-8.402655884E0,8.556560447E0,4.322965868E1
7.051529958E0,3.290606679E1,-2.510583317E0,6.907644464E0,3.371687727E1
7.061591958E0,1.783560754E1,3.082181683E0,-1.725043223E0,1.818198323E1
7.071652958E0,9.345328204E0,3.285036213E0,4.059142953E0,1.070529139E1
7.081713958E0,6.763966681E0,1.652976290E0,9.780827072E0,1.200617150E1
7.091775958E0,5.703234984E0,1.070461902E0,7.916438853E0,9.815435908E0
7.101836958E0,5.110935427E0,1.254335200E0,4.435345792E0,6.882391301E0
7.111897958E0,5.382423404E0,1.853632997E0,-4.028180484E-1,5.706899278E0
7.121958958E0,6.416932678E0,2.514716129E0,-6.978187612E0,9.807952108E0
7.132020958E0,7.726755177E0,3.448382275E-1,-7.895325726E0,1.105250321E1
7.142081958E0,8.031654729E0,-2.487475705E0,-3.348898040E0,9.050421600E0
7.152142958E0,6.384654293E0,-3.340349995E0,-1.543452094E0,7.369124297E0
7.162204958E0,4.061176615E0,-3.447382109E0,-1.678763388E0,5.585324110E0
7.172265958E0,2.294135181E0,-3.274975201E0,-2.483438787E0,4.707014660E0
7.182326958E0,8.281738973E-1,-2.779479808E0,-2.926347831E0,4.120059664E0
7.192387958E0,-6.634291810E-1,-1.954306994E0,-2.604693668E0,3.323233848E0
7.202449958E0,-2.106667600E0,-9.801795772E-1,-1.821903520E0,2.952648441E0
7.212510958E0,-3.525840633E0,-1.900510271E-1,-1.062676481E0,3.687404625E0
7.222571958E0,-4.866760379E0,4.255050990E-1,-6.488501720E-1,4.928226631E0
7.232633958E0,-6.186845326E0,8.704958980E-1,-4.189856728E-1,6.261818202E0
7.242694958E0,-6.631248334E0,1.258817091E0,1.807784394E-1,6.752092696E0
7.252755958E0,-7.648324719E0,1.619570855E0,1.076905096E-1,7.818662162E0
7.262816958E0,-8.471784591E0,1.926356864E0,-3.023244381E-2,8.688089487E0
7.272878958E0,-9.321973840E0,2.224195903E0,-4.567985201E-1,9.594524927E0
7.282939958E0,-1.046648327E1,2.643634370E0,-1.545357116E0,1.090523743E1
7.293000958E0,-1.119193095E1,2.955102392E0,-2.037593272E0,1.175345629E1
7.303062958E0,-1.154925663E1,3.178399664E0,-1.905107059E0,1.212917912E1
7.313123958E0,-1.170582636E1,3.359066056E0,-1.450094279E0,1.226427613E1
7.323184958E0,-1.173630322E1,3.488165268E0,-8.490016063E-1,1.227309716E1
7.333246958E0,-1.140163432E1,3.695896668E0,-6.211590743E-1,1.200178137E1
7.343307958E0,-1.097786555E1,3.852863125E0,-5.253780274E-1,1.164620575E1
7.353368958E0,-1.088979830E1,3.855563662E0,-5.417350285E-1,1.156488456E1
7.363429958E0,-1.117856538E1,3.494924650E0,-3.550055122E-1,1.171754459E1
7.373491958E0,-1.126338392E1,2.869162062E0,5.337703899E-1,1.163532635E1
7.383552958E0,-1.103571673E1,2.373474003E0,1.674125669E0,1.141153449E1
7.393613958E0,-1.074500019E1,2.155626775E0,2.402303700E0,1.121930563E1
7.403675958E0,-1.042261045E1,2.091511032E0,2.752646935E0,1.098099686E1
7.413736958E0,-9.979461665E0,2.143245003E0,2.882448106E0,1.060620862E1
7.423797958E0,-9.709781063E0,2.075857305E0,3.057260850E0,1.038921921E1
7.433858958E0,-9.651606529E0,2.043495451E0,3.270560261E0,1.039355313E1
7.443920958E0,-9.600502449E0,1.973790209E0,3.499921095E0,1.040744650E1
7.453981958E0,-9.609866180E0,1.908417607E0,3.610070067E0,1.044146501E1
7.464042958E0,-9.499000048E0,1.846197385E0,3.602107036E0,1.032543567E1
7.474104958E0,-9.283293924E0,1.770383556E0,3.536075892E0,1.009047257E1
7.484165958E0,-9.035808182E0,1.779006445E0,3.507580948E0,9.854634318E0
7.494226958E0,-8.677600150E0,1.725368620E0,3.462656790E0,9.500928022E0
7.504288958E0,-7.198835803E0,1.231932617E0,2.615097034E0,7.757552925E0
7.514349958E0,-2.719585608E0,1.454056352E-2,4.935754600E-1,2.764050297E0
7.524410958E0,1.804328544E0,-1.188238713E0,1.065458586E0,2.408882465E0
7.534471542E0,1.066399754E1,-2.737383363E0,-1.152843236E1,1.594110611E1
7.544533542E0,3.085189316E1,-5.337560642E0,-3.509198522E1,4.702952574E1
7.554594542E0,3.364322293E1,-8.300038419E0,-7.129657395E0,3.537780521E1
7.564655542E0,3.550784855E1,-1.038958069E1,9.372359297E0,3.816532214E1
7.574717542E0,4.334267781E1,-1.070220793E1,8.652265334E0,4.547512144E1
7.584778542E0,4.098563712E1,-4.672080842E0,1.790708624E0,4.128991919E1
7.594839542E0,2.210957603E1,-5.985151470E-2,5.386908218E-1,2.211621853E1
7.604900542E0,8.638110979E0,4.913517639E-1,3.693439668E0,9.407437718E0
7.614962542E0,3.418406816E0,2.698573346E-1,4.731861606E0,5.843701087E0
7.625023542E0,2.428091383E0,-8.586609873E-1,4.935348219E0,5.566919121E0
7.635084542E0,2.986520943E0,-1.725688171E0,4.927956169E0,6.015152451E0
7.645146542E0,3.640101659E0,-2.136989944E0,3.864908974E0,5.723162368E0
7.655207542E0,4.741266852E0,-2.126731297E0,2.103184998E0,5.605888378E0
7.665268542E0,7.594665406E0,-1.716925533E0,-2.084835704E-1,7.789110431E0
7.675329542E0,1.008027468E1,-1.022929448E0,-3.758051108E0,1.080653832E1
7.685391542E0,1.053349938E1,-5.944394915E-1,-7.354632525E0,1.286073820E1
7.695452542E0,8.601140789E0,-1.181624635E0,-6.589260063E0,1.089927556E1
7.705513542E0,6.039251078E0,-2.009062075E0,-4.025164783E0,7.530659702E0
7.715575542E0,3.997616796E0,-2.128937013E0,-2.768015757E0,5.308033919E0
7.725636542E0,2.304223967E0,-1.989091787E0,-2.463090477E0,3.915705419E0
7.735697542E0,5.507895881E-1,-1.554988065E0,-2.311934105E0,2.840140201E0
7.745759542E0,-9.110634416E-1,-7.759472980E-1,-1.901544936E0,2.246776345E0
7.755820542E0,-2.127442757E0,-1.458485618E-1,-1.203896168E0,2.448805927E0
7.765881542E0,-3.467304742E0,3.926830696E-1,-6.686619274E-1,3.552958055E0
7.775942542E0,-5.414121160E0,1.011659232E0,-5.732517401E-1,5.537578884E0
7.786004542E0,-6.592229864E0,1.372193579E0,-4.405853605E-1,6.747927479E0
7.796065542E0,-7.567207466E0,1.750986734E0,-2.564926827E-1,7.771381593E0
7.806126542E0,-8.703796846E0,2.089628082E0,-5.715840046E-1,8.969355235E0
7.816188542E0,-9.667246077E0,2.311068863E0,-1.249691488E0,1.001790471E1
7.826249542E0,-1.086541073E1,2.566742315E0,-2.109354980E0,1.136198464E1
7.836310542E0,-1.168071374E1,2.633340054E0,-1.963128980E0,1.213373103E1
7.846372542E0,-1.203108124E1,2.645910106E0,-1.198949350E0,1.237680232E1
7.856433542E0,-1.202856226E1,2.663038355E0,-4.583013276E-1,1.232834634E1
7.866494542E0,-1.167888941E1,2.664244051E0,-9.333252534E-3,1.197892905E1
7.876555542E0,-1.136046641E1,2.653880446E0,2.596081889E-1,1.166921912E1
7.886617542E0,-1.114576718E1,2.662502750E0,6.519529970E-1,1.147789570E1
7.896678542E0,-1.092020265E1,2.694142619E0,1.397824995E0,1.133415833E1
7.906739542E0,-1.081311090E1,2.898340253E0,2.018804998E0,1.137538206E1
7.916801542E0,-1.078056763E1,3.002059334E0,2.238232437E0,1.141239165E1
7.926862542E0,-1.073204744E1,2.968960293E0,2.476857454E0,1.140729548E1
7.936923542E0,-1.057820485E1,2.962616356E0,2.733433277E0,1.132021073E1
7.946984542E0,-1.043309567E1,2.944928821E0,2.972192633E0,1.124081937E1
7.957046542E0,-1.035277130E1,2.959557385E0,3.133320262E0,1.121412277E1
7.967107542E0,-1.019427901E1,2.969047124E0,3.335729818E0,1.112949499E1
7.977168542E0,-9.976678391E0,2.956123608E0,3.593502274E0,1.100845298E1
7.987230542E0,-9.770566378E0,2.960015514E0,3.868588335E0,1.091749215E1
7.997291542E0,-9.402187698E0,3.026872578E0,4.103107583E0,1.069572732E1
8.007352542E0,-8.993992404E0,3.095407501E0,4.203413059E0,1.039914075E1
8.017414542E0,-8.601127925E0,3.079851276E0,4.166992215E0,1.004134999E1
8.027475542E0,-8.103419361E0,3.083228920E0,3.805908522E0,9.468719321E0
8.037536542E0,-7.663607587E0,3.129347371E0,3.278371848E0,8.903449792E0
8.047597542E0,-7.231125882E0,3.190439081E0,2.682290020E0,8.346422156E0
8.057659542E0,-6.395703192E0,3.197915331E0,2.457314890E0,7.561089753E0
8.067720542E0,-2.282661774E0,2.019474505E0,2.054433838E0,3.675529954E0
8.077781542E0,4.316651407E0,-3.806283036E-1,1.980585404E0,4.764564599E0
8.087843542E0,2.045929998E1,-5.003954769E0,-7.873569406E0,2.248589812E1
8.097904542E0,5.674719516E1,-1.205556119E1,-4.482826352E1,7.331544124E1
8.107965542E0,4.812207962E1,-1.327755910E1,-2.315953481E-1,4.992075479E1
8.118026542E0,3.949222549E1,-1.172538296E1,1.613052320E1,4.424154449E1
8.128088542E0,3.568102437E1,-1.026900877E1,1.477403232E1,3.996073162E1
8.138149542E0,2.405903538E1,-7.700620462E0,1.470433702E1,2.922933913E1
8.148210542E0,1.126255830E1,-4.851039263E0,1.002541493E1,1.583940485E1
8.158272542E0,1.431147546E0,-2.774877757E0,-6.423581547E0,7.142165620E0
8.168333542E0,-8.281984556E-1,-1.310182688E-1,-8.604336877E0,8.645096388E0
8.178394542E0,2.422420753E0,2.737086032E-1,5.509303890E0,6.024572023E0
8.188456542E0,5.484901121E0,3.124639486E-1,6.136465716E0,8.236381822E0
8.198517542E0,9.264364733E0,3.454089157E-1,4.108130926E0,1.014024166E1
8.208578542E0,1.198422867E1,2.381410137E-1,1.960148070E0,1.214580703E1
8.218639542E0,1.097235397E1,7.059056944E-1,-1.960880141E0,1.116852297E1
8.228701542E0,7.433379902E0,9.615852852E-1,-7.453616531E0,1.057053369E1
8.238762542E0,4.800937103E0,3.713145661E-1,-8.278070430E0,9.576707243E0
8.248823542E0,3.761158319E0,-1.088985443E-1,-4.006782306E0,5.496587600E0
8.258885542E0,2.787088205E0,-2.976453499E-1,-1.337502633E0,3.105699069E0
8.268946542E0,1.135482502E0,5.365668207E-2,-5.811185110E-1,1.276674695E0
8.279007542E0,-5.404002553E-1,4.154563665E-1,-6.598534624E-1,9.487059715E-1
8.289069542E0,-2.332904559E0,7.372263050E-1,-9.954159594E-1,2.641363141E0
8.299130542E0,-3.967322372E0,1.120453696E0,-1.361063404E0,4.341377302E0
8.309191542E0,-5.412579249E0,1.540910017E0,-1.717634801E0,5.883934663E0
8.319252542E0,-7.282986592E0,1.989259895E0,-1.873219854E0,7.778688916E0
8.329314542E0,-8.288102497E0,2.355515158E0,-1.506197144E0,8.746983737E0
8.339375542E0,-9.263806323E0,2.640916584E0,-1.463201398E0,9.743382695E0
8.349436542E0,-1.014535068E1,2.962020232E0,-1.890097257E0,1.073658102E1
8.359498542E0,-1.087696015E1,3.199482969E0,-2.345973086E0,1.157793346E1
8.369559542E0,-1.188999494E1,3.373517742E0,-2.754687613E0,1.266257894E1
8.379620542E0,-1.212001388E1,3.392798643E0,-1.863037512E0,1.272307855E1
8.389681542E0,-1.200950735E1,3.424277128E0,-8.116204298E-1,1.251449833E1
8.399743542E0,-1.187072603E1,3.504944438E0,-3.846181512E-2,1.237740891E1
8.409804542E0,-1.165183551E1,3.589305142E0,4.498473501E-1,1.220044035E1
8.419865542E0,-1.132062933E1,3.652509158E0,6.480317080E-1,1.191290967E1
8.429927542E0,-1.096979289E1,3.779614762E0,9.766663507E-1,1.164369876E1
8.439988542E0,-1.055141525E1,3.808059712E0,1.349348069E0,1.129842568E1
8.450049542E0,-1.024724660E1,3.848447308E0,1.612323085E0,1.106418525E1
8.460111542E0,-9.959049035E0,3.793979909E0,1.859733835E0,1.081829706E1
8.470172542E0,-9.930660803E0,3.712779626E0,2.004794046E0,1.078990063E1
8.480233542E0,-1.000063560E1,3.546518434E0,2.015796021E0,1.080064531E1
8.490294542E0,-1.014556001E1,3.241944280E0,1.982288260E0,1.083383854E1
8.500356542E0,-1.029376354E1,2.873968766E0,2.100585034E0,1.089191084E1
8.510417542E0,-1.024923231E1,2.639438700E0,2.191779378E0,1.080820506E1
8.520478542E0,-1.013473799E1,2.441432390E0,2.015017172E0,1.061761745E1
8.530541292E0,-1.002593300E1,2.067776307E0,1.556951853E0,1.035466708E1
8.540602292E0,-9.740362000E0,2.127471993E0,1.738477786E0,1.012042954E1
8.550663292E0,-9.181454138E0,2.346937000E0,1.977292983E0,9.680748985E0
8.560725292E0,-7.951420990E0,2.063434164E0,6.187479749E-1,8.238064418E0
8.570786292E0,-5.484497078E0,1.746484086E0,-3.435721883E0,6.703290216E0
8.580847292E0,-3.604829500E0,1.711845472E0,-4.135637398E0,5.747060756E0
8.590908292E0,2.742533591E0,2.947590181E-1,-1.637744644E1,1.660810421E1
8.600970292E0,9.692798994E0,-1.582018282E0,-2.535826565E1,2.719365314E1
8.611031292E0,6.159497899E0,-2.471132737E0,4.526674330E0,8.033473213E0
8.621092292E0,1.408058880E1,-5.066912910E0,5.259773962E0,1.586196108E1
8.631154292E0,2.500032484E1,-7.575774806E0,6.707707111E0,2.697039007E1
8.641215292E0,3.486070211E1,-8.707084735E0,8.838354142E0,3.700268071E1
8.651276292E0,4.434331884E1,-9.148926077E0,8.493597629E0,4.606705955E1
8.661338292E0,4.508582168E1,-7.448141783E0,1.544264272E-2,4.569689673E1
8.671399292E0,2.473958580E1,-2.105301398E0,-1.867916663E1,3.107073648E1
8.681460292E0,1.228182622E1,-2.914423312E-1,1.601781578E0,1.238926544E1
8.691521292E0,6.270565175E0,6.493197765E-1,1.458837621E1,1.589220954E1
8.701583292E0,1.631418191E0,1.758460353E0,9.923989130E0,1.020976339E1
8.711644292E0,1.512116865E0,1.714647020E0,5.850423435E0,6.281239224E0
8.721705292E0,4.706586431E0,1.294906544E0,-2.652123065E-1,4.888668158E0
8.731767292E0,8.791416788E0,-3.217237455E-1,-3.453443917E0,9.450861875E0
8.741828292E0,1.056143036E1,-2.110541672E0,-3.996035416E-1,1.077765654E1
8.751889292E0,1.009775084E1,-3.016467750E0,1.183027528E0,1.060486699E1
8.761951292E0,8.637182441E0,-3.138746771E0,1.123361370E0,9.258217571E0
8.772012292E0,7.570114117E0,-2.787893366E0,7.294250230E-1,8.100064075E0
8.782073292E0,5.894361168E0,-1.807257560E0,-4.686906604E-1,6.182988306E0
8.792134292E0,3.573818792E0,-5.548386388E-1,-2.798672708E0,4.573029149E0
8.802196292E0,1.761644454E0,5.605560462E-1,-4.898780901E0,5.235997382E0
8.812257292E0,6.737623805E-1,1.102790281E0,-4.698140713E0,4.872640794E0
8.822318292E0,-2.530265629E-2,1.407078506E0,-2.818447992E0,3.150263359E0
8.832380292E0,-1.279546786E0,1.712096464E0,-1.397203875E0,2.553564753E0
8.842441292E0,-2.449574638E0,1.804663881E0,-5.856688142E-1,3.098424695E0
8.852502292E0,-3.992074220E0,1.913799530E0,-5.622811941E-1,4.462672446E0
8.862564292E0,-5.731053697E0,2.079994356E0,-1.016263622E0,6.180950149E0
8.872625292E0,-7.766695753E0,2.250826316E0,-1.844400097E0,8.293949225E0
8.882686292E0,-8.853644026E0,2.351016017E0,-2.499092953E0,9.495249046E0
8.892747292E0,-1.002649667E1,2.581104538E0,-3.224671605E0,1.084394960E1
8.902809292E0,-1.082001061E1,2.762223212E0,-3.247020832E0,1.162951637E1
8.912870292E0,-1.082765409E1,2.878405633E0,-1.747870753E0,1.133924002E1
8.922931292E0,-1.112124279E1,2.992422245E0,-6.602874720E-1,1.153571028E1
8.932993292E0,-1.112201462E1,3.017469671E0,3.466732299E-1,1.152928943E1
8.943054292E0,-1.109349892E1,3.083496430E0,7.903845119E-1,1.154116009E1
8.953115292E0,-1.112582817E1,3.152002993E0,9.701875627E-1,1.160432847E1
8.963177292E0,-1.109174709E1,3.162737312E0,1.059984423E0,1.158245776E1
8.973238292E0,-1.096729846E1,3.193013902E0,9.799161601E-1,1.146460680E1
8.983299292E0,-1.081613975E1,3.230884271E0,8.132811121E-1,1.131763750E1
8.993361292E0,-1.070431877E1,3.280918896E0,6.637935356E-1,1.121550226E1
9.003422292E0,-1.071985716E1,3.383163893E0,5.539160943E-1,1.125468607E1
9.013483292E0,-1.075957379E1,3.429327076E0,4.263522144E-1,1.130090654E1
9.023544292E0,-1.080622989E1,3.377290073E0,2.830718958E-1,1.132522946E1
9.033606292E0,-1.080029146E1,3.174594296E0,1.375477083E-1,1.125803109E1
9.043667292E0,-1.093456224E1,2.701918831E0,-7.886233306E-1,1.129101163E1
9.053728292E0,-1.120953341E1,1.681114261E0,-3.604138359E0,1.189409928E1
9.063790292E0,-1.086704795E1,5.169555518E-1,-6.236649570E0,1.254016635E1
9.073851292E0,-1.000496137E1,2.831660360E-1,-5.531418060E0,1.143573438E1
9.083912292E0,-9.503435161E0,1.048927923E0,-1.452968770E0,9.670917635E0
9.093974292E0,-9.346202363E0,1.748116921E0,1.756063725E0,9.669083265E0
9.104035292E0,-8.675027960E0,2.145624089E0,2.361151435E0,9.243097367E0
9.114096292E0,-8.014730548E0,2.427048824E0,1.845628012E0,8.575127667E0
9.124157292E0,-6.277766021E0,1.852603741E0,-5.290771222E-1,6.566765524E0
9.134219292E0,-1.956405267E0,6.344170511E-1,-5.039115247E0,5.442672968E0
9.144280292E0,2.308330466E0,-2.543252295E-1,-9.191437089E0,9.480273553E0
9.154341292E0,6.563103129E0,-1.702407920E0,-6.526790750E0,9.411243961E0
9.164403292E0,1.072641072E1,-3.140033158E0,3.246810333E0,1.163861987E1
9.174464292E0,2.290707543E1,-5.849172716E0,1.194764059E0,2.367222819E1
9.184525292E0,3.022676967E1,-6.285826993E0,-1.011381197E-1,3.087360450E1
9.194587292E0,3.472875150E1,-6.370570689E0,1.024216128E0,3.532307136E1
9.204648292E0,4.141014965E1,-6.022705797E0,-2.132495774E0,4.190013147E1
9.214709292E0,3.373735141E1,-2.662323241E0,2.889759464E0,3.396538760E1
9.224770292E0,1.535686757E1,-6.320647162E-1,1.031333183E1,1.850939494E1
9.234832292E0,4.690551612E0,8.717197202E-1,7.867468421E0,9.200990656E0
9.244893292E0,4.865345353E-1,1.409927123E0,3.759515543E0,4.044572594E0
9.254954292E0,1.185207224E0,1.124321921E0,3.206632944E0,3.598792962E0
9.265016292E0,3.900751237E0,9.073406656E-1,2.417020265E0,4.677725329E0
9.275077292E0,7.314718847E0,7.929144560E-1,8.508333197E-1,7.406601277E0
9.285138292E0,1.107537138E1,1.259876168E-1,2.346885252E-1,1.107857404E1
9.295200292E0,1.323455633E1,-4.626496826E-1,-5.560886273E-1,1.325431102E1
9.305261292E0,1.298380785E1,-8.470187424E-1,-2.377627427E0,1.322685976E1
9.315322292E0,1.083765283E1,-1.508019282E0,-4.005245658E0,1.165207423E1
9.325383292E0,8.268677462E0,-1.960490863E0,-4.289632008E0,9.519217098E0
9.335445292E0,5.906121672E0,-1.758873459E0,-3.442566926E0,7.058836738E0
9.345506292E0,4.280756519E0,-1.287708622E0,-2.431163510E0,5.088577983E0
9.355567292E0,2.917141975E0,-6.770033459E-1,-2.053412329E0,3.631053983E0
9.365629292E0,1.360479852E0,1.141964141E-1,-1.724382488E0,2.199418380E0
9.375690292E0,5.513456583E-2,7.324818742E-1,-1.392937746E0,1.574752387E0
9.385751292E0,-1.350983389E0,1.158192941E0,-1.184856464E0,2.137861513E0
9.395813292E0,-2.374146141E0,1.194602822E0,-9.186607289E-1,2.812042556E0
9.405874292E0,-3.309495993E0,1.272260571E0,-7.799799764E-1,3.630396597E0
9.415935292E0,-4.751021762E0,1.350958100E0,-7.069342196E-1,4.989694536E0
9.425996292E0,-6.503837505E0,1.403697792E0,-1.015723266E0,6.730673335E0
9.436058292E0,-7.076343652E0,1.442403290E0,-9.989687276E-1,7.290617618E0
9.446119292E0,-7.903566792E0,1.602390419E0,-1.121713405E0,8.142006144E0
9.456180292E0,-8.773869878E0,1.663523644E0,-1.279307635E0,9.021348656E0
9.466242292E0,-9.153306227E0,1.764826947E0,-6.973284137E-1,9.347935384E0
9.476303292E0,-9.508156203E0,1.872417031E0,2.528067807E-1,9.694064740E0
9.486364292E0,-9.831317779E0,1.935311729E0,9.895476206E-1,1.006873603E1
9.496426292E0,-1.022300989E1,1.964630692E0,1.242742656E0,1.048399324E1
9.506487292E0,-1.067324433E1,1.911177200E0,1.325860681E0,1.092376534E1
9.516548292E0,-1.095212494E1,1.897209664E0,1.447194060E0,1.120905062E1
9.526610292E0,-1.089139342E1,1.815184046E0,1.743803430E0,1.117847012E1
9.536670792E0,-1.060859166E1,1.690398763E0,1.774866178E0,1.088805837E1
9.546731792E0,-1.046215750E1,1.722983103E0,1.627493101E0,1.072726173E1
9.556792792E0,-1.031918723E1,1.763460599E0,1.618283590E0,1.059312325E1
9.566854792E0,-1.022988154E1,1.728096054E0,1.594019838E0,1.049655617E1
9.576915792E0,-1.024730390E1,1.625459293E0,1.597852395E0,1.049773725E1
9.586976792E0,-1.032185356E1,1.504183363E0,1.681202262E0,1.056549429E1
9.597038792E0,-1.047051551E1,1.342796118E0,1.794767761E0,1.070775363E1
9.607099792E0,-1.060905009E1,1.134222866E0,1.913489335E0,1.083973462E1
9.617160792E0,-1.070022923E1,8.682828730E-1,1.913957551E0,1.090468038E1
9.627222792E0,-1.068689641E1,4.464773805E-1,1.611420567E0,1.081692068E1
9.637283792E0,-1.059505185E1,-1.600256478E-1,1.079118559E0,1.065106703E1
9.647344792E0,-1.062367397E1,-9.338827854E-1,6.917490005E-1,1.068705303E1
9.657406792E0,-1.052343983E1,-1.322054290E0,6.604801378E-1,1.062670445E1
9.667467792E0,-1.002773043E1,-1.440146703E0,9.242357567E-2,1.013103856E1
9.677528792E0,-8.964900752E0,-1.748895624E0,-1.952080082E0,9.340165847E0
9.687589792E0,-8.105346603E0,-1.298630636E0,-1.954092693E0,8.438101880E0
9.697651792E0,-7.963673830E0,-2.362133329E-1,-1.670824477E0,8.140488440E0
9.707712792E0,-8.247122287E0,8.565093581E-1,-2.122349832E0,8.558796825E0
9.717773792E0,-6.747927184E0,7.783792280E-1,-4.521674083E0,8.160020344E0
9.727835792E0,-7.417567277E-1,-2.153824078E-1,-8.086728483E0,8.123531879E0
9.737896792E0,7.215365297E0,-3.512065762E0,-7.591041301E0,1.104626681E1
9.747957792E0,2.502482935E1,-9.502242329E0,-1.348566735E0,2.680211420E1
9.758019792E0,5.247099070E1,-1.636375460E1,7.839753789E0,5.551971784E1
9.768080792E0,6.825077803E1,-1.903395229E1,9.748852158E0,7.152272478E1
9.778141792E0,5.665196039E1,-1.398203047E1,1.147076244E1,5.946864874E1
9.788203792E0,3.361809160E1,-5.944553082E0,1.282320120E1,3.646845600E1
9.798264792E0,1.672894830E1,-6.809243426E-2,7.969826270E0,1.853052829E1
9.808325792E0,1.039606175E1,3.066946471E0,-3.087911662E0,1.127029099E1
9.818386792E0,7.812392328E0,6.359500741E0,-1.640284207E1,1.924915456E1
9.828448792E0,7.557106985E0,4.231393155E0,-1.588015478E0,8.805472570E0
9.838509792E0,7.596534761E0,2.341913511E0,4.076294591E0,8.933536637E0
9.848570792E0,6.305849614E0,2.309615246E0,1.680695016E0,6.922629390E0
9.858632792E0,4.587518994E0,2.361956158E0,-3.138656139E0,6.039480919E0
9.868693792E0,3.000258976E0,1.943147875E0,-7.239259944E0,8.073677113E0
9.878754792E0,2.585580289E0,8.334412153E-1,-5.437898862E0,6.078700003E0
9.888816792E0,1.858110064E0,4.544587567E-1,-2.851445584E0,3.433634763E0
9.898877792E0,4.700810552E-1,5.425246949E-1,-1.636705828E0,1.787208776E0
9.908938792E0,-1.094559009E0,8.572980013E-1,-1.055798401E0,1.745774771E0
9.919000792E0,-2.720025319E0,1.249089809E0,-1.013504906E0,3.160056215E0
9.929061792E0,-3.883993701E0,1.837692171E0,-1.594332810E0,4.583057571E0
9.939122792E0,-5.205791883E0,2.111249624E0,-2.210999469E0,6.037065740E0
9.949183792E0,-6.397352107E0,2.115192255E0,-2.320369298E0,7.126308016E0
9.959245792E0,-7.988395858E0,2.136864960E0,-1.881202472E0,8.480541432E0
9.969306792E0,-8.379726613E0,2.044128558E0,-5.871645319E-1,8.645405823E0
9.979367792E0,-8.828558301E0,2.043128977E0,5.945519042E-1,9.081371574E0
9.989429792E0,-9.324566495E0,2.132676015E0,1.431054575E0,9.671802547E0
9.999490792E0,-9.589841221E0,2.165971815E0,2.176782732E0,1.006950205E1
1.000955179E1,-1.021675805E1,2.285621489E0,2.252076159E0,1.070878413E1
1.001961379E1,-1.074233620E1,2.352866223E0,2.006811190E0,1.117859819E1
1.002967479E1,-1.113093513E1,2.420189017E0,1.824224864E0,1.153615309E1
1.003973579E1,-1.126022175E1,2.391171040E0,1.731723082E0,1.164084007E1
1.004979779E1,-1.126019836E1,2.330939749E0,1.716705093E0,1.162636760E1
1.005985879E1,-1.123513485E1,2.324012991E0,1.759754634E0,1.160715417E1
1.006991979E1,-1.106604507E1,2.307314366E0,1.736552736E0,1.143663712E1
1.007998079E1,-1.098106164E1,2.226082361E0,1.575236388E0,1.131461564E1
1.009004279E1,-1.086398869E1,2.123091405E0,1.391698136E0,1.115663888E1
1.010010379E1,-1.073242166E1,2.022483189E0,1.234250307E0,1.099084559E1
1.011016479E1,-1.065719606E1,1.944281943E0,1.118763412E0,1.089071585E1
1.012022679E1,-1.054071485E1,1.787709587E0,9.189006110E-1,1.073065484E1
1.013028779E1,-1.048300750E1,1.507789925E0,5.831185511E-1,1.060692717E1
1.014034879E1,-1.049523286E1,1.117284067E0,1.866954562E-1,1.055618737E1
1.015041079E1,-1.057296692E1,7.250253586E-1,1.643702021E-1,1.059907113E1
1.016047179E1,-1.054833961E1,6.309291869E-1,8.508330274E-1,1.060138940E1
1.017053279E1,-1.014539161E1,9.676777916E-1,2.058973323E0,1.039734305E1
1.018059479E1,-9.875617454E0,1.056334591E0,2.568275162E0,1.025864027E1
1.019065579E1,-9.845827060E0,7.901936004E-1,2.369941993E0,1.015782169E1
1.020071679E1,-9.591893594E0,5.514574863E-1,2.195957506E0,9.855493770E0
1.021077779E1,-8.900800651E0,5.900415082E-1,2.219306608E0,9.192264303E0
1.022083979E1,-8.043463181E0,6.821697995E-1,1.856476352E0,8.283064651E0
1.023090079E1,-8.177590122E0,1.039832287E0,2.613637569E0,8.647851336E0
1.024096179E1,-8.166973917E0,1.252564663E0,3.360941842E0,8.919882918E0
1.025102379E1,-6.237903214E0,1.101272344E0,2.060836831E0,6.661177502E0
1.026108479E1,-4.914858406E0,6.666951433E-1,2.839261740E-1,4.967990503E0
1.027114579E1,-6.078800476E-1,-7.956398432E-1,2.402618573E0,2.602909318E0
1.028120779E1,1.241547018E1,-3.386602348E0,4.248673432E0,1.355227660E1
1.029126879E1,4.485915553E1,-8.097278615E0,-1.600835499E1,4.831332306E1
1.030132979E1,6.511478997E1,-1.240950251E1,-1.930440823E1,6.904050842E1
1.031139179E1,5.912928533E1,-1.340869226E1,8.492982502E0,6.122251354E1
1.032145279E1,4.623164206E1,-6.432316702E0,6.571300925E0,4.713726149E1
1.033151379E1,2.274324346E1,-1.810765743E-2,1.065596581E-1,2.274350030E1
1.034157479E1,8.925203421E0,1.922294438E-1,7.459174602E-1,8.958381612E0
1.035163679E1,3.633599555E0,-2.828316484E-2,6.551577097E0,7.491796055E0
1.036169779E1,1.465022805E0,-8.742566078E-1,8.990326785E0,9.150770030E0
1.037175879E1,-3.244912326E-2,-1.520567700E0,7.560770266E0,7.712225755E0
1.038182079E1,-2.287442458E-1,-1.718307230E0,5.412109133E0,5.682941926E0
1.039188179E1,1.434585709E0,-2.086043593E0,4.152442296E0,4.863372394E0
1.040194279E1,5.607790298E0,-2.647588550E0,3.186627281E0,6.972204141E0
1.041200479E1,9.444782326E0,-2.458481117E0,1.579605574E0,9.886515885E0
1.042206579E1,9.866334414E0,-1.011980683E0,-1.367953763E0,1.001199067E1
1.043212679E1,8.207548331E0,9.875226568E-1,-5.222310852E0,9.778117469E0
1.044218879E1,6.244128744E0,1.900757754E0,-6.182435356E0,8.990246423E0
1.045224979E1,4.717500259E0,1.236068645E0,-3.231147981E0,5.850042022E0
1.046231079E1,3.251029683E0,4.570179369E-1,-1.188029017E0,3.491342484E0
1.047237279E1,1.972752913E0,1.554037893E-1,-7.946014508E-1,2.132438946E0
1.048243379E1,4.491205412E-1,1.601331635E-1,-1.167749777E0,1.261345088E0
1.049249479E1,-1.329279694E0,2.330948666E-1,-1.708941160E0,2.177566902E0
1.050255579E1,-3.111961845E0,1.319478299E-1,-2.106392781E0,3.760133947E0
1.051261779E1,-4.604468903E0,1.617649752E-1,-2.196634029E0,5.104165245E0
1.052267879E1,-6.165590698E0,2.758340661E-1,-2.357867492E0,6.606824668E0
1.053273967E1,-8.228892422E0,4.421566536E-1,-2.694081223E0,8.669962321E0
1.054280167E1,-9.923899083E0,7.449722578E-1,-3.010058910E0,1.039707706E1
1.055286267E1,-1.036829917E1,1.133755381E0,-3.046898707E0,1.086603058E1
1.056292367E1,-1.147414330E1,1.515110347E0,-3.451289803E0,1.207737245E1
1.057298567E1,-1.126225190E1,1.789201358E0,-2.314022731E0,1.163590394E1
1.058304667E1,-1.142360231E1,2.068749576E0,-1.176822317E0,1.166890420E1
1.059310767E1,-1.136113300E1,2.299855658E0,-5.599403344E-2,1.159171318E1
1.060316967E1,-1.132986092E1,2.418545511E0,7.306447522E-1,1.160814165E1
1.061323067E1,-1.129462209E1,2.552531242E0,1.326901778E0,1.165523797E1
1.062329167E1,-1.115772474E1,2.556560266E0,1.768372260E0,1.158265782E1
1.063335367E1,-1.099651466E1,2.581222944E0,1.785541878E0,1.143565505E1
1.064341467E1,-1.078268432E1,2.619467828E0,1.617161071E0,1.121352321E1
1.065347567E1,-1.066715621E1,2.576165687E0,1.404738889E0,1.106336940E1
1.066353667E1,-1.070321599E1,2.424779812E0,1.191220647E0,1.103890376E1
1.067359867E1,-1.081998488E1,2.205311297E0,1.103518990E0,1.109744227E1
1.068365967E1,-1.086589605E1,1.998140646E0,1.250340528E0,1.111861567E1
1.069372067E1,-1.056773834E1,1.876259821E0,1.692811908E0,1.086568252E1
1.070378267E1,-1.024706066E1,1.838343990E0,2.156577678E0,1.063167852E1
1.071384367E1,-1.008199142E1,1.768427517E0,2.504155180E0,1.053777396E1
1.072390467E1,-9.894824388E0,1.715373390E0,2.838955054E0,1.043598205E1
1.073396667E1,-9.749020557E0,1.736667195E0,3.038384284E0,1.035814625E1
1.074402767E1,-9.663798559E0,1.839954021E0,3.261338617E0,1.036391639E1
1.075408867E1,-9.533156558E0,1.984659890E0,3.456861615E0,1.033294929E1
1.076415067E1,-9.386621826E0,2.073108236E0,3.622421725E0,1.027270102E1
1.077421167E1,-9.212183011E0,2.191044676E0,3.832664503E0,1.021539572E1
1.078427267E1,-8.868918123E0,2.248112039E0,3.655908437E0,9.852785540E0
1.079433367E1,-6.278526160E0,2.021077957E0,-1.076551339E-1,6.596683748E0
1.080439567E1,-7.537885433E-1,1.342958378E0,-5.297641701E0,5.516950422E0
1.081445667E1,4.484481699E0,-5.827368741E-1,-3.730185617E0,5.862119336E0
1.082451767E1,2.990965879E1,-5.411989850E0,-4.858509958E1,5.730959103E1
1.083457967E1,3.143910564E1,-9.565227951E0,-9.457369627E0,3.419580076E1
1.084464067E1,3.757867739E1,-1.146550930E1,1.151931304E1,4.094275847E1
1.085470167E1,4.067543531E1,-1.224373278E1,1.551408868E1,4.522263789E1
1.086476367E1,4.291991009E1,-1.167469929E1,1.570711930E1,4.717129299E1
1.087482467E1,2.832805245E1,-7.977942790E0,1.478939763E1,3.293709776E1
1.088488567E1,1.184079881E1,-4.179797325E0,8.448100444E0,1.513425331E1
1.089494767E1,2.654050015E0,-4.218374330E-1,-7.406002654E0,7.878502625E0
1.090500867E1,1.908915936E0,2.594400814E0,-8.268587415E0,8.873804904E0
1.091506967E1,6.253476103E0,1.666219941E0,3.409918413E0,7.315039019E0
1.092513167E1,9.884032767E0,1.790629102E0,3.808524274E0,1.074268651E1
1.093519267E1,1.269754688E1,2.687261615E0,1.484620479E-1,1.297964224E1
1.094525367E1,1.517845031E1,3.907933079E0,-5.397183530E0,1.657669704E1
1.095531567E1,1.412859093E1,4.993857797E0,-9.505353048E0,1.774563140E1
1.096537667E1,9.661118780E0,3.334085289E0,-5.029087272E0,1.139056889E1
1.097543767E1,6.507455762E0,9.082595555E-1,-9.214849341E-1,6.634836124E0
1.098549867E1,4.099612702E0,-5.082116255E-1,-2.332559574E-1,4.137573166E0
1.099556067E1,2.259592754E0,-1.127154751E0,-6.737372375E-1,2.613457310E0
1.100562167E1,6.240207016E-1,-1.137268680E0,-1.660376526E0,2.107043449E0
1.101568267E1,-8.949105084E-1,-8.429749542E-1,-2.087764721E0,2.422856397E0
1.102574467E1,-2.494788818E0,-3.902883424E-1,-1.731022586E0,3.061492353E0
1.103580567E1,-3.933424308E0,1.204827556E-1,-1.121354460E0,4.091916263E0
1.104586667E1,-5.109277741E0,6.380519727E-1,-6.681461298E-1,5.192133339E0
1.105592867E1,-6.929605436E0,9.811355969E-1,-8.334960330E-1,7.048175239E0
1.106598967E1,-8.273302610E0,1.291077057E0,-1.001107639E0,8.433067802E0
1.107605067E1,-9.060352455E0,1.630427234E0,-1.026314986E0,9.262915417E0
1.108611267E1,-1.001016189E1,2.004520251E0,-1.833944106E0,1.037230897E1
1.109617367E1,-1.069552339E1,2.423443431E0,-2.976915722E0,1.136350852E1
1.110623467E1,-1.135202771E1,2.737003587E0,-3.195120946E0,1.210654863E1
1.111629667E1,-1.138843365E1,2.943133726E0,-1.768523703E0,1.189479437E1
1.112635767E1,-1.132583219E1,2.952897114E0,-4.067744207E-1,1.171151320E1
1.113641867E1,-1.113148477E1,2.915094280E0,4.307468355E-1,1.151491514E1
1.114647967E1,-1.083525430E1,2.889658015E0,7.445166135E-1,1.123864601E1
1.115654167E1,-1.066427821E1,2.921762737E0,6.323097146E-1,1.107534843E1
1.116660267E1,-1.055746595E1,2.980319678E0,3.213583310E-1,1.097477398E1
1.117666367E1,-1.051727219E1,3.050007379E0,2.618606094E-1,1.095372678E1
1.118672567E1,-1.055768580E1,3.012909720E0,3.073928777E-1,1.098348055E1
1.119678667E1,-1.064452047E1,2.824767078E0,2.462578261E-1,1.101570551E1
1.120684767E1,-1.068065743E1,2.569118623E0,3.891064739E-1,1.099218893E1
1.121690967E1,-1.061485754E1,2.483892531E0,6.258415246E-1,1.091955129E1
1.122697067E1,-1.046427069E1,2.473661073E0,8.921203633E-1,1.078961718E1
1.123703167E1,-1.028891503E1,2.426388381E0,1.182992445E0,1.063713327E1
1.124709367E1,-1.029920847E1,2.264468747E0,1.311535149E0,1.062645934E1
1.125715467E1,-1.029882723E1,2.062225837E0,1.294726450E0,1.058276591E1
1.126721567E1,-1.018364059E1,1.734884672E0,1.114268950E0,1.039028179E1
1.127727767E1,-9.757149357E0,1.206716499E0,1.394131163E-1,9.832474983E0
1.128733867E1,-8.527602112E0,8.582192302E-1,-2.030115268E0,8.807832084E0
1.129739967E1,-7.797356213E0,9.003849640E-1,-2.745292015E0,8.315412512E0
1.130746167E1,-7.733349667E0,9.886282191E-1,-2.470434872E0,8.178333038E0
1.131752267E1,-6.813707775E0,1.304873708E0,-1.322974203E0,7.062546975E0
1.132758367E1,-6.318342775E0,1.802124289E0,1.473495421E-1,6.571972250E0
1.133764467E1,-7.579376106E0,2.695244234E0,1.550352685E0,8.192367002E0
1.134770667E1,-7.270374148E0,2.396145413E0,1.699586346E0,7.841456933E0
1.135776767E1,-3.888283219E0,1.296667287E0,1.759487709E0,4.460480853E0
1.136782867E1,2.845097262E0,-3.029324023E-1,2.858149416E0,4.044176623E0
1.137789067E1,1.714430994E1,-2.575997580E0,1.920723511E0,1.744282964E1
1.138795167E1,3.733460994E1,-5.311701915E0,5.645112491E-1,3.771479748E1
1.139801267E1,5.092384083E1,-7.067524297E0,2.315596947E0,5.146405982E1
1.140807467E1,5.841811422E1,-7.068651640E0,1.777867261E0,5.887106859E1
1.141813567E1,5.136230716E1,-1.010742242E0,-4.849564887E0,5.160064414E1
1.142819667E1,2.375226005E1,2.709620199E0,-7.312026204E0,2.499955252E1
1.143825867E1,8.530425147E0,1.467956061E0,-6.601529860E-1,8.680947538E0
1.144831967E1,3.169486168E0,8.778559345E-1,5.945933025E0,6.794879921E0
1.145838067E1,8.263285160E-2,-1.714742768E-1,4.807626318E0,4.811392982E0
1.146844267E1,-5.321223521E-1,-1.622253996E0,1.892942512E0,2.549135849E0
1.147850367E1,1.486439402E0,-2.372682729E0,1.159776514E0,3.030545659E0
1.148856467E1,4.303927281E0,-3.021003728E0,1.311946939E0,5.419544108E0
1.149862567E1,6.987414519E0,-3.660672748E0,1.986193907E-1,7.890750046E0
1.150868767E1,7.675766287E0,-3.175318181E0,-2.506325959E0,8.676502951E0
1.151874867E1,6.175668374E0,-1.832550276E0,-4.695965549E0,7.971776014E0
1.152880967E1,4.866209571E0,-1.196265040E0,-4.690186161E0,6.863591761E0
1.153887192E1,4.037125263E0,-9.112362269E-1,-3.176930258E0,5.217434016E0
1.154893292E1,2.963174765E0,-2.957322872E-1,-1.640441029E0,3.399839562E0
1.155899392E1,1.733809953E0,4.944221368E-1,-8.683664882E-1,2.001152308E0
1.156905592E1,4.989598686E-1,1.256467826E0,-7.039521396E-1,1.524211587E0
1.157911692E1,-1.047845019E0,1.913401189E0,-6.917490005E-1,2.288580340E0
1.158917792E1,-2.392515169E0,2.498364975E0,-5.442962551E-1,3.501744536E0
1.159923992E1,-3.214355362E0,2.946861618E0,2.394665044E-2,4.360808094E0
1.160930092E1,-4.327999683E0,3.183706012E0,5.165254160E-1,5.397625749E0
1.161936192E1,-5.711702337E0,3.316929558E0,7.013162148E-1,6.642093774E0
1.162942392E1,-7.256013971E0,3.390772583E0,2.413240186E-1,8.012821896E0
1.163948492E1,-8.082244254E0,3.180186865E0,5.781060620E-1,8.704623329E0
1.164954592E1,-8.833005694E0,3.057064092E0,8.897427392E-1,9.389316939E0
1.165960792E1,-9.337480071E0,3.010537212E0,1.094012879E0,9.871612460E0
1.166966892E1,-9.896688480E0,2.948468141E0,1.112761464E0,1.038634418E1
1.167972992E1,-1.053088451E1,2.823302642E0,8.530491952E-1,1.093609890E1
1.168979092E1,-1.089195007E1,2.745202260E0,8.908572185E-1,1.126784533E1
1.169985292E1,-1.092483949E1,2.687209283E0,9.081157871E-1,1.128706720E1
1.170991392E1,-1.064910351E1,2.624102038E0,7.584060165E-1,1.099383904E1
1.171997492E1,-1.057195184E1,2.546729050E0,5.997266170E-1,1.089089834E1
1.173003692E1,-1.059342516E1,2.513658952E0,4.976180056E-1,1.089893396E1
1.174009792E1,-1.038759264E1,2.564702806E0,5.491283941E-1,1.071360459E1
1.175015892E1,-1.029431084E1,2.570774555E0,6.644052275E-1,1.063123472E1
1.176022092E1,-1.035234329E1,2.519877758E0,6.898745294E-1,1.067692476E1
1.177028192E1,-1.036430786E1,2.438367280E0,7.076977198E-1,1.067077075E1
1.178034292E1,-1.042768817E1,2.311686476E0,5.711092472E-1,1.069610867E1
1.179040492E1,-1.052504080E1,2.160516363E0,1.606792934E-1,1.074570298E1
1.180046592E1,-1.079781692E1,1.720060810E0,-1.174814237E0,1.099689265E1
1.181052692E1,-1.167719137E1,5.234751973E-1,-7.101203674E0,1.367691187E1
1.182058892E1,-1.217456138E1,-1.249841469E0,-1.251544119E1,1.750480839E1
1.183064992E1,-1.011758810E1,-1.079309617E0,-4.063680977E0,1.095645934E1
1.184071092E1,-8.914189605E0,-8.723607212E-2,3.141030693E-1,8.920148384E0
1.185077292E1,-8.532027869E0,6.731174326E-1,7.971266440E-1,8.595580116E0
1.186083392E1,-8.152176953E0,1.348425963E0,1.899594012E0,8.478484479E0
1.187089492E1,-8.519518336E0,1.693614146E0,2.858131875E0,9.144366537E0
1.188095692E1,-8.873037486E0,1.833940013E0,3.869842270E0,9.852401199E0
1.189101792E1,-7.076946500E0,1.699028522E0,3.934603399E0,8.273510355E0
1.190107892E1,-5.954448910E0,1.586930674E0,2.849091202E0,6.789044959E0
1.191114092E1,-3.158165374E0,5.263800940E-1,2.651207391E0,4.156920154E0
1.192120192E1,4.153747394E0,-1.450626229E0,5.679657841E0,7.184458717E0
1.193126292E1,2.220292565E1,-4.365417185E0,7.261434925E0,2.376457893E1
1.194132392E1,4.507292038E1,-7.766963555E0,5.848236576E0,4.610960578E1
1.195138592E1,6.153972748E1,-9.645258792E0,2.987260616E-1,6.229171945E1
1.196144692E1,6.448524131E1,-9.486973495E0,3.741381866E0,6.528665217E1
1.197150792E1,4.504972798E1,-4.576514534E0,-3.027460223E0,4.538268384E1
1.198156992E1,1.718467912E1,-3.327370639E0,-2.628868396E1,3.158289880E1
1.199163092E1,8.015638620E0,-4.400268345E0,-1.089131740E1,1.422088671E1
1.200169192E1,5.814722090E0,-2.250926304E0,1.175401794E1,1.330543498E1
1.201175392E1,1.522978068E0,-1.063330858E0,1.055576792E1,1.071794621E1
1.202181492E1,-2.370045488E0,-3.476090037E-1,4.160257684E0,4.800592842E0
1.203187592E1,-3.403928525E0,-4.708819775E-1,-1.050690858E0,3.593384272E0
1.204193792E1,1.698507974E0,-1.106424106E0,-1.386898742E0,2.456133498E0
1.205199892E1,6.446431296E0,-1.798383533E0,-6.148534369E-1,6.720766663E0
1.206205992E1,6.685661353E0,-1.929465683E0,-1.248018014E0,7.069544152E0
1.207212192E1,5.075755069E0,-1.436838203E0,-2.468796190E0,5.824323838E0
1.208218292E1,3.714292885E0,-6.370092680E-1,-2.828291194E0,4.711791965E0
1.209224392E1,2.729156331E0,3.009309004E-1,-2.107824179E0,3.461470273E0
1.210230592E1,1.677039921E0,1.154065392E0,-1.286224891E0,2.408049895E0
1.211236692E1,1.167104244E-1,1.930098352E0,-6.028631365E-1,2.025424630E0
1.212242792E1,-1.458026612E0,2.494827409E0,-1.539568227E-2,2.889678603E0
1.213248992E1,-2.630706176E0,2.876009152E0,4.572744834E-1,3.924429077E0
1.214255092E1,-4.207187437E0,3.223792768E0,6.700967610E-1,5.342499004E0
1.215261192E1,-5.689395209E0,3.462662345E0,6.231494665E-1,6.689361974E0
1.216267292E1,-7.399271924E0,3.739672725E0,7.596819520E-2,8.290967872E0
1.217273492E1,-9.483116087E0,4.091974484E0,-1.399473764E0,1.042268069E1
1.218279592E1,-1.057217053E1,4.200306141E0,-2.949270086E0,1.175208728E1
1.219285692E1,-1.126081349E1,4.079759066E0,-3.856069154E0,1.258251262E1
1.220291892E1,-1.161881745E1,4.038400540E0,-3.463436809E0,1.277892767E1
1.221297992E1,-1.119908677E1,3.845267300E0,-1.229951288E0,1.190455397E1
1.222304092E1,-1.128204940E1,3.832171876E0,9.226562776E-2,1.191548123E1
1.223310292E1,-1.122988172E1,3.795760387E0,6.801165497E-1,1.187352512E1
1.224316392E1,-1.082493630E1,3.777271491E0,1.064968590E0,1.151439030E1
1.225322492E1,-1.071309661E1,3.822834165E0,1.240280979E0,1.144215001E1
1.226328692E1,-1.041550725E1,3.964420398E0,1.197216308E0,1.120860148E1
1.227334792E1,-9.880739615E0,4.054708132E0,1.013441756E0,1.072831476E1
1.228340892E1,-9.839881611E0,4.094584974E0,7.504386735E-1,1.068419648E1
1.229347092E1,-9.802157714E0,4.124870920E0,6.709950395E-1,1.065584770E1
1.230353192E1,-1.003450151E1,4.193763984E0,6.643853469E-1,1.089588384E1
1.231359292E1,-1.022116217E1,4.210765348E0,6.932951505E-1,1.107625203E1
1.232365492E1,-1.020456894E1,4.068938209E0,5.912891579E-1,1.100177751E1
1.233371592E1,-1.017648477E1,3.735124760E0,4.596203864E-1,1.085003457E1
1.234377692E1,-1.001912450E1,3.205558518E0,3.007600155E-1,1.052373117E1
1.235383892E1,-9.786601782E0,2.576840748E0,-5.146422471E-1,1.013323933E1
1.236389992E1,-9.024945225E0,1.471689508E0,-4.754810758E0,1.030648978E1
1.237396092E1,-6.818069213E0,1.154292995E-1,-8.890988438E0,1.120486801E1
1.238402292E1,-4.869745967E0,-1.013414859E0,-7.102320492E0,8.670893370E0
1.239408392E1,-3.635625615E0,-1.100414411E0,-2.599822937E0,4.603016923E0
1.240414492E1,-5.141905789E0,5.943092448E-1,2.491465553E0,5.744545171E0
1.241420592E1,-6.320462975E0,1.747873969E0,5.258767072E0,8.405828142E0
1.242426792E1,-4.046921688E0,1.627558590E0,5.680072993E0,7.161686346E0
1.243432892E1,2.418360447E0,3.303799635E-1,-4.988727450E-2,2.441333019E0
1.244438992E1,1.045117994E1,-1.569754039E0,-9.538257669E0,1.423620909E1
1.245445192E1,1.358019227E1,-2.034255681E0,-4.729530905E0,1.452337016E1
1.246451292E1,1.814340731E1,-2.447936394E0,6.367366415E0,1.938347173E1
1.247457392E1,2.939791048E1,-3.749814428E0,5.456490669E0,3.013422538E1
1.248463592E1,3.619098343E1,-5.452132155E0,6.632020751E0,3.719538582E1
1.249469692E1,4.157377346E1,-8.013000941E0,2.207569930E0,4.239646434E1
1.250475792E1,2.985350214E1,-5.744027499E0,-3.810074078E0,3.063889858E1
1.251481992E1,1.261133319E1,-8.107738260E-1,2.124755377E0,1.281474403E1
1.252488092E1,7.473460227E0,9.609821449E-1,5.765303178E0,9.487613777E0
1.253494229E1,6.665323568E0,2.179422896E0,2.804205636E0,7.552482484E0
1.254500429E1,7.994235472E0,2.867010872E0,-1.009858728E0,8.552623385E0
1.255506529E1,9.109186061E0,2.442185512E0,-1.492911100E0,9.548315261E0
1.256512629E1,9.434721022E0,8.140951176E-1,1.022831507E-1,9.470331222E0
1.257518829E1,8.456832676E0,-1.066437702E0,-2.470317051E-2,8.523844117E0
1.258524929E1,7.286790791E0,-2.206837713E0,-1.127854371E0,7.696720613E0
1.259531029E1,6.431695143E0,-2.606870879E0,-1.337615923E0,7.067651275E0
1.260537229E1,5.430667026E0,-2.378930625E0,-6.878744893E-1,5.968636911E0
1.261543329E1,4.552595914E0,-1.901791981E0,6.474504948E-2,4.934281530E0
1.262549429E1,3.405155856E0,-1.263056176E0,1.560458136E-1,3.635209430E0
1.263555629E1,1.903705482E0,-4.748681706E-1,-5.047132364E-1,2.025914557E0
1.264561729E1,6.225121200E-1,2.252476108E-1,-1.213571044E0,1.382393759E0
1.265567829E1,-5.304693443E-1,8.459022166E-1,-1.526796885E0,1.824296306E0
1.266574029E1,-1.562785912E0,1.303012686E0,-1.246115330E0,2.385989372E0
1.267580129E1,-2.681504447E0,1.589806042E0,-3.329438214E-1,3.135091855E0
1.268586229E1,-3.819898862E0,1.789649255E0,4.886121241E-1,4.246553141E0
1.269592429E1,-5.009852856E0,2.002952612E0,6.805961676E-1,5.438166598E0
1.270598529E1,-6.416717500E0,2.202273669E0,5.001531391E-1,6.802530849E0
1.271604629E1,-7.808005747E0,2.364650993E0,4.428783461E-2,8.158338647E0
1.272610729E1,-8.299806869E0,2.411178312E0,8.793401040E-2,8.643396746E0
1.273616929E1,-9.303956230E0,2.499473022E0,-3.862799299E-1,9.641585922E0
1.274623029E1,-9.894822049E0,2.533203270E0,-6.806300814E-1,1.023659511E1
1.275629129E1,-1.034373151E1,2.609549780E0,-5.988741660E-1,1.068462361E1
1.276635329E1,-1.096754755E1,2.597857688E0,-6.929628094E-1,1.129230541E1
1.277641429E1,-1.117997690E1,2.586067070E0,-3.799953425E-1,1.148146432E1
1.278647529E1,-1.124990141E1,2.654722445E0,-9.641824722E-2,1.155928759E1
1.279653729E1,-1.125606321E1,2.692181170E0,1.874314745E-1,1.157505633E1
1.280659829E1,-1.129064832E1,2.717299055E0,4.358866111E-1,1.162120694E1
1.281665929E1,-1.111593001E1,2.728420459E0,4.890985394E-1,1.145632557E1
1.282672129E1,-1.095605310E1,2.695733646E0,3.219687438E-1,1.128741526E1
1.283678229E1,-1.086513240E1,2.616515276E0,9.615746140E-2,1.117615768E1
1.284684329E1,-1.082353765E1,2.399099134E0,-1.477321693E-1,1.108722096E1
1.285690529E1,-1.090568752E1,2.133237932E0,-3.912301096E-1,1.111925292E1
1.286696629E1,-1.099341564E1,1.809911173E0,-8.007422698E-1,1.117014566E1
1.287702729E1,-1.113883121E1,1.436318824E0,-1.811592393E0,1.137622255E1
1.288708929E1,-1.126314302E1,8.729705858E-1,-3.590107380E0,1.185366354E1
1.289715029E1,-1.060365427E1,8.788949847E-2,-6.618717166E0,1.250010502E1
1.290721129E1,-8.377911052E0,-4.685578555E-2,-7.927663168E0,1.153427208E1
1.291727329E1,-7.350221971E0,1.136869754E0,-3.212303574E0,8.101674525E0
1.292733429E1,-8.253386409E0,1.808295587E0,1.734098221E0,8.625277780E0
1.293739529E1,-8.587382290E0,2.023036628E0,3.554516840E0,9.511593019E0
1.294745729E1,-7.978522834E0,2.172919184E0,3.169377995E0,8.855696543E0
1.295751829E1,-6.928386292E0,1.850138408E0,2.886154363E0,7.730164018E0
1.296757929E1,-5.638665935E0,1.683069424E0,2.764785170E0,6.501639274E0
1.297764129E1,-3.662259682E0,1.507317324E0,2.500960554E0,4.683903841E0
1.298770229E1,-1.155892793E0,1.252187225E0,3.040994189E0,3.485929812E0
1.299776329E1,2.250043082E0,5.115993561E-1,3.923156598E0,4.551437735E0
1.300782529E1,7.989716159E0,-8.551107042E-1,4.027454260E0,8.988168136E0
1.301788629E1,1.804316264E1,-2.362417211E0,2.567374399E0,1.837738133E1
1.302794729E1,3.364034610E1,-3.037982873E0,-4.895652641E0,3.413018665E1
1.303800929E1,4.762466400E1,-2.787750402E0,-1.683824329E1,5.059057828E1
1.304807029E1,5.247922826E1,-2.332537062E0,-1.616400787E1,5.496167099E1
1.305813129E1,4.135001221E1,-1.618333876E0,4.774837471E0,4.165623107E1
1.306819229E1,2.092896237E1,-4.615625025E-1,1.185789139E1,2.405917900E1
1.307825429E1,6.049172634E0,-6.631634250E-1,6.363987894E0,8.805260768E0
1.308831529E1,-6.077981865E-1,-1.410892645E0,1.683172627E0,2.278838911E0
1.309837629E1,-7.416023612E-2,-1.955101338E0,6.706736473E0,6.986289079E0
1.310843829E1,1.927053999E0,-3.115316100E0,8.054522020E0,8.848392876E0
1.311849929E1,4.132908502E0,-4.149869521E0,6.212066706E0,8.537688358E0
1.312856029E1,6.415593081E0,-4.868583833E0,4.836474141E0,9.394382642E0
1.313862229E1,8.581718093E0,-5.615972307E0,3.076140633E0,1.070736530E1
1.314868329E1,9.239377241E0,-6.136275682E0,6.524686483E-1,1.111061143E1
1.315874429E1,7.493515592E0,-5.442037522E0,-3.893925197E0,1.004645220E1
1.316880629E1,5.854330544E0,-3.318919073E0,-1.105958624E1,1.294615223E1
1.317886729E1,5.012431478E0,-1.918371907E0,-1.034142887E1,1.165117038E1
1.318892829E1,4.236745112E0,-1.807311354E0,-4.092852151E0,6.161803487E0
1.319899029E1,2.859453930E0,-1.324425189E0,-1.219498586E0,3.379016967E0
1.320905129E1,9.104722881E-1,-5.966416991E-1,-3.087773522E-1,1.131496601E0
1.321911229E1,-9.003045648E-1,1.650904329E-1,-9.911739506E-2,9.206668336E-1
1.322917429E1,-2.455890800E0,8.765502512E-1,-3.692773231E-1,2.633648744E0
1.323923529E1,-4.112196495E0,1.404738450E0,-7.907152451E-1,4.416863222E0
1.324929629E1,-5.438087727E0,1.840607593E0,-1.063375808E0,5.838784339E0
1.325935829E1,-6.676916842E0,2.127785550E0,-7.764505970E-1,7.050642907E0
1.326941929E1,-7.831891038E0,2.461455595E0,-3.059660109E-1,8.215284297E0
1.327948029E1,-8.571510608E0,2.676561795E0,1.364039929E-1,8.980722866E0
1.328954229E1,-9.775364018E0,2.979993111E0,-3.381140026E-1,1.022508786E1
1.329960329E1,-1.049817050E1,3.278561883E0,-1.343107774E0,1.107991383E1
1.330966429E1,-1.163485052E1,3.669594722E0,-2.631268094E0,1.248035431E1
1.331972629E1,-1.226487865E1,3.891085789E0,-2.644081682E0,1.313617010E1
1.332978729E1,-1.235126541E1,3.775942419E0,-1.501481949E0,1.300253615E1
1.333984829E1,-1.244108215E1,3.802275062E0,-8.433053219E-1,1.303644831E1
1.334991029E1,-1.243900873E1,3.958184635E0,-4.794143808E-1,1.306238883E1
1.335997129E1,-1.231338247E1,3.884396282E0,6.098645926E-3,1.291154365E1
1.337003229E1,-1.180176046E1,3.733897722E0,7.396048062E-1,1.240042569E1
1.338009429E1,-1.132916627E1,3.625999052E0,1.143028919E0,1.195007919E1
1.339015529E1,-1.108044559E1,3.548029939E0,1.174671711E0,1.169378658E1
1.340021629E1,-1.065453207E1,3.413711794E0,1.323021565E0,1.126600496E1
1.341027829E1,-1.041177906E1,3.294701075E0,1.448773978E0,1.101631265E1
1.342033929E1,-1.043348276E1,3.168829818E0,1.466951948E0,1.100231761E1
1.343040029E1,-1.057269210E1,2.959673745E0,1.332812289E0,1.105974120E1
1.344046229E1,-1.035730289E1,2.762483706E0,1.540988662E0,1.082957458E1
1.345052329E1,-9.915440501E0,2.627194923E0,2.132253846E0,1.047686117E1
1.346058429E1,-9.547222620E0,2.448601077E0,2.429164639E0,1.015115500E1
1.347064529E1,-9.312994271E0,2.402289082E0,2.631062856E0,9.971225947E0
1.348070729E1,-8.979024117E0,2.551911145E0,2.531374261E0,9.671762003E0
1.349076829E1,-8.398561079E0,2.896528493E0,2.395475322E0,9.201304664E0
1.350083029E1,-7.657030638E0,3.036197133E0,1.885857733E0,8.450152106E0
1.351089129E1,-5.860473045E0,2.842377429E0,-9.949481821E-1,6.588943439E0
1.352095229E1,-3.931098286E0,2.615966515E0,-1.246855003E0,4.883795854E0
1.353101329E1,-4.241604148E0,2.754453432E0,1.651592546E0,5.320336211E0
1.354107533E1,2.568243295E-1,2.047807627E0,-7.481377941E0,7.760830543E0
1.355113633E1,8.399247542E0,6.208865941E-1,-1.324625661E1,1.569701162E1
1.356119733E1,1.352440983E1,-2.571758933E-1,-3.313090861E-1,1.353091151E1
1.357125933E1,2.485668448E1,-1.859920946E0,3.751705125E0,2.520693080E1
1.358132033E1,3.722856249E1,-2.965003774E0,6.446395043E0,3.789872190E1
1.359138133E1,4.987069648E1,-3.674514862E0,3.660707831E0,5.013969693E1
1.360144333E1,5.822887961E1,-5.529178576E0,2.874618684E0,5.856140084E1
1.361150433E1,4.044782893E1,-6.130017407E0,-5.153287979E0,4.123300081E1
1.362156533E1,1.318692491E1,-4.823160616E0,-7.294898540E0,1.582319221E1
1.363162733E1,5.083611973E0,-3.644300544E0,3.718014053E0,7.276514663E0
1.364168833E1,1.000065665E0,-2.490777920E0,6.988676348E0,7.486367816E0
1.365174933E1,5.013613200E-1,-1.894465566E0,5.438131582E0,5.780453101E0
1.366181133E1,1.939370574E0,-1.416449400E0,3.102403986E0,3.923314622E0
1.367187233E1,4.456861206E0,-6.598710041E-1,7.088673822E-1,4.560869930E0
1.368193333E1,8.642306356E0,-6.430668372E-1,2.995809245E-1,8.671374911E0
1.369199533E1,9.998104928E0,-1.594295388E0,3.032709561E-2,1.012446540E1
1.370205633E1,8.156873437E0,-2.647560483E0,-6.468108825E-1,8.600146806E0
1.371211733E1,6.140408494E0,-3.008348599E0,-6.783705711E-1,6.871314605E0
1.372217933E1,4.446070170E0,-2.710064879E0,-4.098360959E-1,5.223021849E0
1.373224033E1,3.038421999E0,-2.142642594E0,-1.083243477E-1,3.719497236E0
1.374230133E1,1.554503331E0,-1.474234947E0,-1.173161594E-1,2.145603031E0
1.375236333E1,-1.996561021E-1,-8.431623575E-1,-2.591076672E-1,9.043904596E-1
1.376242433E1,-1.931152897E0,-1.907104468E-1,-3.755444785E-1,1.976551452E0
1.377248533E1,-3.631304523E0,4.865837981E-1,-4.716340756E-1,3.693991748E0
1.378254733E1,-5.283167503E0,1.096109837E0,-6.990580201E-1,5.440771798E0
1.379260833E1,-7.162727492E0,1.701013505E0,-1.555077528E0,7.524385569E0
1.380266933E1,-8.834930012E0,2.270990001E0,-3.044791955E0,9.616867575E0
1.381273133E1,-9.683586706E0,2.782760096E0,-4.235429488E0,1.092952278E1
1.382279233E1,-1.045196581E1,3.149858819E0,-4.884976210E0,1.195943947E1
1.383285333E1,-1.049424351E1,3.324130112E0,-4.223604664E0,1.179058202E1
1.384291533E1,-1.123534769E1,3.509330142E0,-4.218027590E0,1.250360718E1
1.385297633E1,-1.171657120E1,3.667772145E0,-4.044479306E0,1.292626807E1
1.386303733E1,-1.194581714E1,3.866376918E0,-3.799485648E0,1.311821287E1
1.387309933E1,-1.204720786E1,4.068857517E0,-3.360583116E0,1.315235103E1
1.388316033E1,-1.190330320E1,4.304545039E0,-2.894143707E0,1.298436764E1
1.389322133E1,-1.163073057E1,4.606308729E0,-2.333441334E0,1.272544389E1
1.390328333E1,-1.106258820E1,4.768831504E0,-1.517021509E0,1.214182712E1
1.391334433E1,-1.017648477E1,4.738622741E0,-5.782907975E-1,1.124054304E1
1.392340533E1,-9.824356084E0,4.708529169E0,-2.184133852E-1,1.089660148E1
1.393346733E1,-9.809712317E0,4.702673182E0,-1.965938421E-1,1.088045219E1
1.394352833E1,-9.996094655E0,4.542593959E0,7.161896311E-2,1.098008185E1
1.395358933E1,-1.016045170E1,4.190671976E0,6.214422257E-1,1.100830145E1
1.396365133E1,-1.002904605E1,3.884804710E0,1.236309550E0,1.082598419E1
1.397371233E1,-9.892773185E0,3.768140479E0,1.561234500E0,1.070062134E1
1.398377333E1,-9.772984201E0,3.692654094E0,1.737804186E0,1.059088655E1
1.399383533E1,-9.636352313E0,3.590468153E0,1.874640581E0,1.045299119E1
1.400389633E1,-9.471333947E0,3.438588481E0,1.784233564E0,1.023296374E1
1.401395733E1,-8.891541585E0,3.235169988E0,1.148682153E0,9.531280464E0
1.402401933E1,-7.753788609E0,3.191573148E0,6.534650870E-1,8.410374164E0
1.403408033E1,-7.032270849E0,3.059292173E0,4.567657757E-1,7.682495484E0
1.404414133E1,-4.996719425E0,2.553326463E0,-2.497842818E0,6.142141303E0
1.405420333E1,-2.624168404E0,2.054231816E0,-3.107009254E0,4.556274209E0
1.406426433E1,8.177588367E-1,1.651558048E0,-8.067072483E0,8.274903743E0
1.407432533E1,3.945446768E0,1.067262160E0,-1.136195628E1,1.207475256E1
1.408438733E1,3.807019200E0,1.179125535E0,2.977165983E0,4.974660743E0
1.409444833E1,1.308196272E1,2.902348812E-1,6.752226495E-1,1.310259174E1
1.410450933E1,1.759759429E1,-6.031651452E-2,6.057541169E0,1.861109260E1
1.411457033E1,2.349545969E1,4.716525675E-1,7.859276472E0,2.477957443E1
1.412463233E1,3.339538051E1,-3.925906835E-1,4.000590105E0,3.363644286E1
1.413469333E1,4.304889966E1,-4.314564536E0,6.443722866E0,4.374179688E1
1.414475533E1,4.177839794E1,-6.433875570E0,9.745374234E0,4.337973730E1
1.415481633E1,2.174456008E1,-4.205798138E0,5.395379080E0,2.279527904E1
1.416487733E1,9.373364434E0,-1.429244862E0,3.091489574E0,9.972963926E0
1.417493933E1,7.613423858E0,-1.247819940E-1,6.601939166E-1,7.643013110E0
1.418500033E1,8.226236032E0,1.064080617E0,-6.259418628E0,1.039151329E1
1.419506133E1,9.896143520E0,1.715550853E0,-8.541501528E0,1.318461299E1
1.420512233E1,9.649249517E0,1.044011730E0,-2.969085131E0,1.014955384E1
1.421518433E1,9.389448370E0,-5.059814244E-1,-1.035102181E0,9.459872854E0
1.422524533E1,9.849225461E0,-2.612336563E0,-1.603930430E0,1.031523811E1
1.423530633E1,9.114546788E0,-4.404424546E0,-4.795566435E0,1.120140063E1
1.424536833E1,7.220961083E0,-5.288297265E0,-8.099697023E0,1.207118299E1
1.425542933E1,5.097369887E0,-5.001715286E0,-6.984185101E0,9.988952752E0
1.426549033E1,3.666773733E0,-3.719143443E0,-4.014288962E0,6.587243234E0
1.427555233E1,2.236856441E0,-2.428482416E0,-2.575728316E0,4.187532679E0
1.428561333E1,8.005481422E-1,-1.362398616E0,-1.833904930E0,2.420788014E0
1.429567433E1,-5.720518184E-1,-5.458902061E-1,-1.289866537E0,1.512942525E0
1.430573633E1,-2.092889805E0,1.626325558E-1,-7.568437135E-1,2.231468013E0
1.431579733E1,-3.515851250E0,7.270724688E-1,-2.214744025E-1,3.597067597E0
1.432585833E1,-4.976707329E0,1.157727795E0,-4.304076056E-2,5.109775141E0
1.433592033E1,-6.912325160E0,1.653274644E0,-4.467951035E-1,7.121318841E0
1.434598133E1,-7.727953271E0,2.083988735E0,-4.874548870E-1,8.018845495E0
1.435604233E1,-8.316576684E0,2.335980049E0,-8.918058196E-2,8.638877456E0
1.436610433E1,-9.127058660E0,2.404990496E0,-3.380275369E-2,9.438661012E0
1.437616533E1,-9.429560854E0,2.469334719E0,4.264339292E-1,9.756847736E0
1.438622633E1,-9.882109033E0,2.576681412E0,9.201529384E-1,1.025387963E1
1.439628833E1,-1.041090666E1,2.598710212E0,1.256435666E0,1.080365229E1
1.440634933E1,-1.081894642E1,2.699368275E0,1.312710439E0,1.122761771E1
1.441641033E1,-1.109797321E1,2.785615876E0,1.159439714E0,1.150082456E1
1.442647233E1,-1.119464289E1,2.879249679E0,1.084338149E0,1.160973287E1
1.443653333E1,-1.132084334E1,2.965323032E0,1.246383133E0,1.176894666E1
1.444659433E1,-1.146773125E1,3.000208690E0,1.343321636E0,1.192956936E1
1.445665633E1,-1.127605016E1,2.955736522E0,1.355184613E0,1.173551068E1
1.446671733E1,-1.113339213E1,2.846298280E0,1.415588544E0,1.157832998E1
1.447677833E1,-1.095811483E1,2.837978277E0,1.560577565E0,1.142671447E1
1.448684033E1,-1.066851042E1,2.887427010E0,1.743111265E0,1.118895823E1
1.449690133E1,-1.045902924E1,2.936753536E0,1.968955146E0,1.104049811E1
1.450696233E1,-1.018027844E1,2.943606473E0,2.262069927E0,1.083604395E1
1.451702433E1,-9.946938282E0,2.872696412E0,2.376596417E0,1.062271982E1
1.452708533E1,-1.003688717E1,2.740567172E0,2.038117767E0,1.060206284E1
1.453714604E1,-1.017668474E1,2.467299888E0,1.144630763E0,1.053388156E1
1.454720804E1,-9.955924283E0,1.952099378E0,-7.957592726E-2,1.014580961E1
1.455726904E1,-9.329423193E0,1.462504410E0,-1.451256413E0,9.554224272E0
1.456733004E1,-9.076761496E0,1.050353182E0,-2.174295326E0,9.392465131E0
1.457739204E1,-9.109946199E0,-1.955327918E-1,-5.179719733E0,1.048135723E1
1.458745304E1,-8.598446392E0,-1.942560376E0,-1.003103645E1,1.335396995E1
1.459751404E1,-8.849839827E0,-1.629840758E0,-4.977455188E0,1.028353568E1
1.460757604E1,-9.310664155E0,-6.973053172E-2,-2.342263028E-2,9.310954730E0
1.461763704E1,-8.873377794E0,6.733223775E-1,1.207953039E0,8.980498151E0
1.462769804E1,-7.918238626E0,1.157863158E0,3.830277085E0,8.871875370E0
1.463776004E1,-6.556008702E0,1.305772571E0,3.951687502E0,7.765444367E0
1.464782104E1,-1.664999335E0,1.104480345E0,4.850108678E0,5.245536561E0
1.465788204E1,1.170863770E1,5.134407174E-1,3.928626960E0,1.236082230E1
1.466794404E1,3.206209606E1,-9.258732694E-1,1.896406549E0,3.213147371E1
1.467800504E1,4.786968573E1,-3.224828602E0,6.001178688E0,4.835204729E1
1.468806604E1,5.910904461E1,-5.514443008E0,8.931202079E0,6.003377888E1
1.469812804E1,6.471722609E1,-6.018257235E0,3.273466619E0,6.507883186E1
1.470818904E1,4.230585421E1,-3.478042569E0,1.041366961E0,4.246135332E1
1.471825004E1,1.524052435E1,-2.252074989E0,-4.864120946E0,1.615565217E1
1.472831204E1,3.803715523E0,-2.672890329E0,-2.024854995E1,2.077537893E1
1.473837304E1,4.698842964E0,-3.173445025E0,-1.281977473E0,5.813204346E0
1.474843404E1,3.163671112E0,-2.237736301E0,7.378795559E0,8.334440747E0
1.475849604E1,1.550172883E-1,-1.462549725E0,5.518135525E0,5.710770678E0
1.476855704E1,-9.354738128E-1,-1.375865777E0,3.414713130E0,3.798471225E0
1.477861804E1,-1.045058820E0,-1.549184265E0,-9.889173639E-1,2.114255750E0
1.478868004E1,3.266162277E0,-2.149181243E0,-3.207200124E0,5.056968328E0
1.479874104E1,5.681420192E0,-2.532269470E0,-2.227472245E0,6.607008148E0
1.480880204E1,4.968245823E0,-2.411779113E0,-1.310584391E0,5.676070516E0
1.481886404E1,3.431054344E0,-1.834696643E0,-1.171815931E0,4.063421988E0
1.482892504E1,1.874041972E0,-1.265490518E0,-1.176436400E0,2.549019845E0
1.483898604E1,5.341519207E-1,-6.831668960E-1,-1.383089865E0,1.632474459E0
1.484904804E1,-1.133757573E0,-1.851671402E-1,-1.902970487E0,2.222833727E0
1.485910904E1,-2.772025777E0,4.706650458E-1,-2.079120197E0,3.496911965E0
1.486917004E1,-4.343040476E0,1.116392951E0,-1.791543022E0,4.828867382E0
1.487923204E1,-5.760483903E0,1.615837700E0,-1.321490033E0,6.127025557E0
1.488929304E1,-7.395581746E0,2.131098436E0,-1.098609960E0,7.774519519E0
1.489935404E1,-8.611212033E0,2.561787092E0,-1.152578591E0,9.057823314E0
1.490941604E1,-8.960869682E0,2.946298239E0,-8.728518873E-1,9.473105572E0
1.491947704E1,-9.491803295E0,3.195022128E0,-1.118589896E0,1.007738754E1
1.492953804E1,-9.802940072E0,3.427453628E0,-1.198007948E0,1.045372161E1
1.493960004E1,-1.043791027E1,3.784417665E0,-1.951804678E0,1.127303550E1
1.494966104E1,-1.093940841E1,4.107196248E0,-2.575507291E0,1.196549018E1
1.495972204E1,-1.116469462E1,4.263525944E0,-2.482735952E0,1.220622944E1
1.496978404E1,-1.123478987E1,4.456203395E0,-2.163059317E0,1.227831738E1
1.497984504E1,-1.136785262E1,4.641154919E0,-1.898186295E0,1.242463292E1
1.498990604E1,-1.141769428E1,4.795222619E0,-1.655819206E0,1.249398415E1
1.499996804E1,-1.125096210E1,4.832108025E0,-1.061756129E0,1.229067704E1
1.501002904E1,-1.080739933E1,4.746431990E0,-4.295049600E-1,1.181156093E1
1.502009004E1,-1.055048905E1,4.518301702E0,1.226745844E-3,1.147727629E1
1.503015204E1,-1.036327641E1,4.180947179E0,5.904763949E-1,1.119046378E1
1.504021304E1,-1.036031889E1,3.972107441E0,8.352116060E-1,1.112705816E1
1.505027404E1,-1.040470627E1,3.773431332E0,9.118862180E-1,1.110532454E1
1.506033604E1,-1.039637048E1,3.600993726E0,8.760194702E-1,1.103716835E1
1.507039704E1,-1.017153217E1,3.488680993E0,8.883369224E-1,1.078981484E1
1.508045804E1,-9.740856675E0,3.443404832E0,1.080125596E0,1.038787740E1
1.509052004E1,-8.877841558E0,3.578060362E0,1.473114621E0,9.684454212E0
1.510058104E1,-7.997994062E0,3.827177476E0,1.849904666E0,9.057446866E0
1.511064204E1,-7.217557418E0,3.927284440E0,1.732279883E0,8.397469366E0
1.512070404E1,-5.982977475E0,3.865505098E0,-4.027736096E-1,7.134449923E0
1.513076504E1,-1.668776051E0,3.827941415E0,-8.061704739E0,9.079043578E0
1.514082604E1,5.030412251E0,2.294315567E0,-1.638891283E1,1.729639833E1
1.515088804E1,1.300170500E0,1.078583246E0,-5.318326811E0,5.580177884E0
1.516094904E1,-2.804433385E0,1.334018131E0,8.930196358E0,9.454779637E0
1.517101004E1,2.104298893E0,1.070799872E0,8.375221918E0,8.701668137E0
1.518107204E1,1.008819181E1,8.763660640E-2,4.823212363E0,1.118224806E1
1.519113304E1,2.096878191E1,2.198244645E-1,-1.298892299E0,2.101012277E1
1.520119404E1,2.372248369E1,4.443882069E-1,7.446480589E0,2.486772580E1
1.521125604E1,3.004260109E1,-1.503211555E0,9.841022987E0,3.164906410E1
1.522131704E1,3.817364094E1,-5.571615329E0,7.035116104E0,3.921431650E1
1.523137804E1,3.950186638E1,-8.560381018E0,4.339139214E0,4.065102336E1
1.524144004E1,2.606853395E1,-6.492467594E0,2.063004102E0,2.694395264E1
1.525150104E1,1.199010161E1,-2.605680824E-1,-1.927874948E1,2.270463860E1
1.526156204E1,1.021537694E1,1.426332803E0,-2.310376407E1,2.530162575E1
1.527162404E1,7.560079710E0,-9.536884012E-1,5.610653679E0,9.462756549E0
1.528168504E1,3.976351642E0,-6.154592816E-1,5.305403295E0,6.658638496E0
1.529174604E1,4.037701213E0,-1.766217561E0,5.413400198E0,6.980505517E0
1.530180804E1,4.262213244E0,-3.914480207E0,-5.734972135E-1,5.815368955E0
1.531186904E1,6.189803433E0,-5.729814672E0,-2.017962999E0,8.672751431E0
1.532193004E1,8.351361185E0,-5.546106266E0,1.323602632E0,1.011219325E1
1.533199204E1,8.179419131E0,-4.984182994E0,1.123512082E0,9.644027003E0
1.534205304E1,6.426568304E0,-4.210988127E0,-2.322339372E-1,7.686815581E0
1.535211404E1,4.054687375E0,-2.701388488E0,-1.456327411E0,5.085162633E0
1.536217604E1,2.445034860E0,-9.074244270E-1,-3.031866685E0,3.999228695E0
1.537223704E1,1.660409271E0,4.346125759E-1,-4.220555341E0,4.556197365E0
1.538229804E1,1.125401902E0,1.284935580E0,-3.583027571E0,3.969341943E0
1.539236004E1,6.692962772E-1,1.812700879E0,-1.607571491E0,2.513588686E0
1.540242104E1,-5.927702576E-1,2.312118439E0,5.820281915E-3,2.386902203E0
1.541248204E1,-2.182858574E0,2.807450548E0,1.162062775E0,3.741261823E0
1.542254404E1,-3.842905902E0,3.227659532E0,1.780631533E0,5.325069058E0
1.543260504E1,-5.139726532E0,3.593342352E0,2.096639625E0,6.612472745E0
1.544266604E1,-6.453202956E0,4.037371430E0,2.270207205E0,7.943427297E0
1.545272804E1,-8.034133948E0,4.523993674E0,1.646173639E0,9.366093887E0
1.546278904E1,-9.088298053E0,4.810633248E0,8.244492209E-1,1.031596192E1
1.547285004E1,-9.626791531E0,4.817831463E0,8.485186994E-1,1.079845355E1
1.548291204E1,-9.735273753E0,4.674488141E0,8.545413315E-1,1.083312676E1
1.549297304E1,-9.506851689E0,4.543756678E0,8.249801481E-1,1.056913175E1
1.550303404E1,-9.682996137E0,4.595059856E0,1.874962507E-1,1.071961492E1
1.551309604E1,-1.026585595E1,5.530464964E0,-5.531460745E0,1.290623489E1
1.552315704E1,-1.138491011E1,7.081766360E0,-1.256109158E1,1.837249615E1
1.553321804E1,-1.136553010E1,6.368680869E0,-5.521228702E0,1.414988823E1
1.554327992E1,-1.081609882E1,5.838704445E0,-1.876128259E0,1.243375730E1
1.555334092E1,-1.062949195E1,5.470650287E0,-3.211431900E-1,1.195898184E1
1.556340192E1,-1.038687460E1,5.120005628E0,1.029746205E0,1.162591927E1
1.557346392E1,-1.023145678E1,4.899158632E0,1.545265900E0,1.144868158E1
1.558352492E1,-9.789941711E0,4.662881710E0,1.372222084E0,1.093016093E1
1.559358592E1,-9.335691408E0,4.469083056E0,1.292995967E0,1.043070832E1
1.560364792E1,-9.200528340E0,4.294375269E0,1.258255466E0,1.023105994E1
1.561370892E1,-9.036521543E0,4.145030365E0,1.129631778E0,1.000580163E1
1.562376992E1,-9.085631137E0,3.903522232E0,8.119607377E-1,9.921968516E0
1.563383192E1,-9.561422583E0,2.937957478E0,-2.424765633E0,1.029232162E1
1.564389292E1,-9.544373857E0,3.639421043E-1,-1.223704473E1,1.552329829E1
1.565395392E1,-8.011386525E0,-7.550231829E-1,-1.028730120E1,1.306066384E1
1.566401592E1,-7.308241886E0,-1.940705493E-1,-1.948612390E0,7.566052676E0
1.567407692E1,-7.421990696E0,1.182811035E0,3.566119763E0,8.318785848E0
1.568413792E1,-7.641664156E0,2.060598265E0,4.561802355E0,9.135159386E0
1.569419992E1,-7.000001235E0,1.654192218E0,4.734379417E0,8.611081096E0
1.570426092E1,-6.098006825E0,1.124881646E0,5.120489777E0,8.041794670E0
1.571432192E1,-5.156948921E0,4.054859868E-1,5.208993233E0,7.341127404E0
1.572438392E1,-1.807847983E0,-5.067854165E-1,5.421311481E0,5.737226156E0
1.573444492E1,6.409775686E0,-1.024791640E0,2.686121701E0,7.025003348E0
1.574450592E1,1.956318144E1,-9.675948707E-2,-5.259444180E0,2.025806465E1
1.575456792E1,2.688455734E1,1.639172768E0,2.222945476E0,2.702605774E1
1.576462892E1,3.845065629E1,1.832663420E0,7.045490234E0,3.913375215E1
1.577468992E1,5.773840113E1,-2.103425026E0,-2.575309070E0,5.783406936E1
1.578475192E1,5.837695918E1,-6.169308357E0,-2.806744205E0,5.876910363E1
1.579481292E1,2.326804744E1,-4.243076477E0,-3.627510849E0,2.392832139E1
1.580487392E1,5.283149377E0,-3.580298091E0,-8.730280055E0,1.081424947E1
1.581493592E1,3.841279791E0,-3.409423446E0,-3.209887505E-1,5.146127908E0
1.582499692E1,2.394773948E0,-2.531156453E0,2.347919624E0,4.201716532E0
1.583505792E1,2.663966308E0,-1.711801326E0,5.639077579E0,6.467315998E0
1.584511992E1,1.399548608E0,-1.332926018E0,4.841971693E0,5.213455471E0
1.585518092E1,3.833190168E0,-1.487319408E0,2.799323503E0,4.974100719E0
1.586524192E1,8.655814594E0,-1.913063951E0,1.692937916E0,9.024908795E0
1.587530392E1,9.674841025E0,-1.330080616E0,-3.726518244E-1,9.772949028E0
1.588536492E1,8.046058760E0,-2.364021979E-2,-2.419021182E0,8.401861931E0
1.589542592E1,6.168390344E0,7.155361316E-1,-2.691426587E0,6.767924975E0
1.590548792E1,4.792298427E0,1.078769334E0,-1.747892972E0,5.213923410E0
1.591554892E1,3.006371655E0,1.498923646E0,-8.301654589E-1,3.460378204E0
1.592561092E1,1.139417678E0,1.897308189E0,-4.555121326E-1,2.259544714E0
1.593567192E1,-6.390924847E-1,2.179493209E0,-5.411188781E-1,2.334831791E0
1.594573292E1,-2.120378151E0,2.310225110E0,-5.338215530E-1,3.180897517E0
1.595579492E1,-3.391791460E0,2.432697235E0,-3.804631197E-1,4.191302581E0
1.596585592E1,-4.630598356E0,2.628123461E0,-3.314435720E-1,5.334728568E0
1.597591692E1,-6.228437741E0,2.908191350E0,-6.022257900E-1,6.900267351E0
1.598597892E1,-8.141836152E0,3.221608541E0,-1.375382066E0,8.863404162E0
1.599603992E1,-1.008066060E1,3.563857475E0,-2.221054341E0,1.092034251E1
1.600610092E1,-1.071632310E1,3.847403288E0,-2.248279561E0,1.160589738E1
1.601616292E1,-1.081361960E1,3.992204321E0,-1.893690956E0,1.168152942E1
1.602622392E1,-1.060195624E1,4.182303734E0,-1.505539917E0,1.149607721E1
1.603628492E1,-1.074016805E1,4.417277018E0,-1.493801047E0,1.170875687E1
1.604634692E1,-1.086838579E1,4.546385002E0,-1.853439308E0,1.192588209E1
1.605640792E1,-1.084419937E1,4.756041012E0,-2.108657992E0,1.202759430E1
1.606646892E1,-1.078658676E1,5.109574780E0,-2.087219760E0,1.211671138E1
1.607653092E1,-1.052130443E1,5.329696137E0,-1.672766776E0,1.191224817E1
1.608659192E1,-1.018544153E1,5.242108355E0,-7.779322815E-1,1.148164177E1
1.609665292E1,-1.001354392E1,5.173310600E0,-7.842055399E-2,1.127121795E1
1.610671492E1,-9.905120165E0,5.201432199E0,2.982699788E-1,1.119174997E1
1.611677592E1,-9.944357321E0,5.184433758E0,3.645282876E-1,1.122058273E1
1.612683692E1,-1.003057802E1,5.110954723E0,3.279725917E-1,1.126241181E1
1.613689892E1,-1.013507595E1,5.008912039E0,2.261948963E-1,1.130752531E1
1.614695992E1,-1.023102759E1,4.814274310E0,1.633805609E-1,1.130830916E1
1.615702092E1,-1.016168429E1,4.576380925E0,3.772623539E-1,1.115102762E1
1.616708292E1,-9.691278718E0,4.266355120E0,6.941218007E-1,1.061152554E1
1.617714392E1,-9.767467938E0,4.016407700E0,5.186796033E-1,1.057374055E1
1.618720492E1,-1.029727889E1,3.400101815E0,-7.732146017E-1,1.087163767E1
1.619726692E1,-1.058671606E1,2.471959826E0,-2.951719777E0,1.126506955E1
1.620732792E1,-9.016035238E0,1.799485002E0,-4.145944870E0,1.008542991E1
1.621738892E1,-6.554230564E0,1.554959706E0,-3.286350082E0,7.495060696E0
1.622745092E1,-3.138392429E0,-1.301876718E-1,-8.111848122E0,8.698766339E0
1.623751192E1,-2.745741373E-1,-1.638082555E0,-8.252239770E0,8.417729304E0
1.624757292E1,-3.664494488E0,-5.337914398E-1,1.178256054E0,3.886095789E0
1.625763492E1,-5.135544019E0,-1.316537880E-1,3.967601284E0,6.490994148E0
1.626769592E1,-1.316857284E0,-2.695681898E-1,1.942172413E0,2.361951269E0
1.627775692E1,5.677556936E0,-1.931339350E-1,-4.182616267E0,7.054518575E0
1.628781892E1,1.355200752E1,4.904372594E-1,-2.685708010E0,1.382427083E1
1.629787992E1,2.667647598E1,2.234339507E0,2.534520356E0,2.688959720E1
1.630794092E1,4.288574831E1,2.567087300E0,3.927470673E0,4.314165472E1
1.631800292E1,5.214892138E1,-1.156284483E0,9.888083718E0,5.309068840E1
1.632806392E1,5.555521452E1,-7.404128036E0,1.927785047E0,5.607958031E1
1.633812492E1,2.769960307E1,-6.490994096E0,-5.758678282E0,2.902694248E1
1.634818692E1,8.088582051E0,-1.825736808E0,7.996605349E0,1.151972967E1
1.635824792E1,2.841631032E0,-3.205874122E-1,1.043905515E1,1.082365538E1
1.636830892E1,1.851621408E0,7.339121763E-1,6.523784112E0,6.821062092E0
1.637837092E1,4.068013764E0,1.390955248E0,2.265130798E0,4.859455733E0
1.638843192E1,8.196176081E0,1.500295988E0,-6.317869004E-1,8.356275791E0
1.639849292E1,1.098748656E1,6.962930180E-1,-7.568343580E-1,1.103551010E1
1.640855492E1,1.089657756E1,-5.020690524E-1,-1.003662872E-1,1.090859978E1
1.641861592E1,9.534107900E0,-1.376094695E0,-3.531594001E-2,9.632969287E0
1.642867692E1,7.719300562E0,-1.594590234E0,-3.787533208E-1,7.891373344E0
1.643873892E1,6.048745202E0,-1.497897314E0,-7.165878996E-1,6.272520475E0
1.644879992E1,4.234284604E0,-1.058358020E0,-1.510133489E0,4.618418664E0
1.645886092E1,2.134614367E0,-5.246850593E-1,-2.493909981E0,3.324373610E0
1.646892292E1,6.458816868E-1,-9.065910526E-2,-3.326489171E0,3.389824838E0
1.647898392E1,-4.660178250E-1,3.471173260E-1,-4.049321970E0,4.090803279E0
1.648904492E1,-1.560024272E0,8.276575881E-1,-4.038312832E0,4.407568870E0
1.649910692E1,-2.913320235E0,1.120488633E0,-3.550547458E0,4.727506406E0
1.650916792E1,-4.688926086E0,1.433158550E0,-2.995244404E0,5.745560052E0
1.651922892E1,-6.134035614E0,1.793908221E0,-2.830934136E0,6.989898976E0
1.652929092E1,-8.330941538E0,2.121049119E0,-3.499474368E0,9.281689347E0
1.653935229E1,-1.007820243E1,2.399205699E0,-4.256698151E0,1.120026032E1
1.654941329E1,-1.036153979E1,2.423745586E0,-3.457692504E0,1.118890910E1
1.655947529E1,-1.055877923E1,2.516239328E0,-1.827996318E0,1.100730893E1
1.656953629E1,-1.036864532E1,2.606337320E0,-3.558135974E-1,1.069712127E1
1.657959829E1,-1.035954238E1,2.624708687E0,8.409243357E-1,1.071990521E1
1.658965929E1,-1.070041166E1,2.685029733E0,1.183048432E0,1.109539535E1
1.659972029E1,-1.106509431E1,2.628025228E0,1.368470657E0,1.145493521E1
1.660978229E1,-1.123499218E1,2.593859362E0,1.549898064E0,1.163423138E1
1.661984329E1,-1.129245979E1,2.631509584E0,1.460107051E0,1.168659075E1
1.662990429E1,-1.131286306E1,2.573225123E0,1.272951711E0,1.167145082E1
1.663996629E1,-1.129280243E1,2.510997007E0,1.112330963E0,1.162195220E1
1.665002729E1,-1.119548605E1,2.444181166E0,1.014793632E0,1.150403128E1
1.666008829E1,-1.118080253E1,2.437553347E0,9.380349664E-1,1.148180827E1
1.667015029E1,-1.117884839E1,2.378104998E0,7.904347980E-1,1.145630053E1
1.668021129E1,-1.113892126E1,2.262618688E0,6.770058310E-1,1.138654237E1
1.669027229E1,-1.108379488E1,2.127322304E0,4.605476086E-1,1.129549084E1
1.670033429E1,-1.110085238E1,1.899969111E0,-1.195181112E-1,1.126290774E1
1.671039529E1,-1.108773123E1,1.610511471E0,-1.235462873E0,1.127199625E1
1.672045629E1,-1.055853248E1,1.335518527E0,-3.640061313E0,1.124794489E1
1.673051829E1,-9.361558321E0,1.239610888E0,-7.434248214E0,1.201846312E1
1.674057929E1,-9.039859718E0,7.521909378E-1,-8.101780386E0,1.216238876E1
1.675064029E1,-9.821790326E0,4.512365024E-1,-1.055585855E0,9.888652137E0
