"Time (s)","Linear Acceleration x (m/s^2)","Linear Acceleration y (m/s^2)","Linear Acceleration z (m/s^2)","Absolute acceleration (m/s^2)"
-2.999999560E-4,-1.345290101E-1,-2.928118953E-1,1.248205125E-1,3.455676793E-1
9.761000052E-3,-1.269794507E-1,-3.969858894E-1,6.175595284E-1,7.450512387E-1
1.982200006E-2,-6.988811418E-2,-3.026893044E-1,1.065215342E0,1.109589513E0
2.988300007E-2,-1.815004975E-2,-4.448327780E-2,8.194077516E-1,8.208149911E-1
3.994499997E-2,6.517438129E-2,5.366896123E-2,6.008119333E-1,6.067149549E-1
5.000599998E-2,1.071826789E-1,1.053492844E-1,5.044509888E-1,5.263624212E-1
6.006699998E-2,1.905687249E-1,1.774697194E-1,3.160373282E-1,4.095015666E-1
7.012799999E-2,2.643988857E-1,1.375080934E-1,1.407524210E-1,3.295853312E-1
8.018900000E-2,3.160974084E-1,7.160178691E-2,-9.344026029E-2,3.373061958E-1
9.025000001E-2,3.099155858E-1,-3.621706903E-2,-4.188196850E-1,5.222731804E-1
1.003120000E-1,2.534405458E-1,9.132444531E-2,-6.532807535E-1,7.066456024E-1
1.103730000E-1,-2.170961536E-2,3.665780291E-1,-7.250640965E-1,8.127537775E-1
1.204340000E-1,-2.892506486E-1,5.642753139E-1,-5.483805352E-1,8.383279663E-1
1.304950000E-1,-5.443911262E-1,9.792264810E-1,-5.450710112E-1,1.245932826E0
1.405560001E-1,-6.905466668E-1,1.311886859E0,-7.458550411E-1,1.659578733E0
1.506180001E-1,-5.901642998E-1,1.366499268E0,-1.066356134E0,1.831046027E0
1.606790001E-1,-4.066635429E-1,9.923800850E-1,-1.145216947E0,1.568985444E0
1.707400000E-1,-7.360059180E-1,3.865600115E-1,-5.859676069E-1,1.017099499E0
1.808010000E-1,-4.595065118E-1,1.062858037E0,-9.200617218E-1,1.478961464E0
1.908620000E-1,-2.147317589E-1,7.110939288E-1,-1.420724300E0,1.603191142E0
2.009230000E-1,1.372404371E-1,-3.750722793E-1,-2.172170448E-1,4.546398540E-1
2.109850000E-1,8.216531555E-1,-6.372079271E-1,-7.596375132E-1,1.287709984E0
2.210460000E-1,1.581060069E-1,-9.285626963E-1,-3.564760870E-1,1.007125310E0
2.311070000E-1,2.722293308E-1,-1.726054791E0,2.863153464E-1,1.770692076E0
2.411680000E-1,7.216756350E-1,-4.853373179E-1,-2.531604642E-1,9.057915074E-1
2.512290000E-1,9.015303605E-1,7.855295688E-1,-4.740396202E-2,1.196687440E0
2.612910001E-1,7.532299150E-1,1.078359590E0,-2.591790032E-1,1.340667172E0
2.713520001E-1,4.480122746E-1,4.275606877E-1,-6.027900463E-1,8.642216034E-1
2.814130001E-1,-2.479794656E-1,-3.164615437E-1,-2.751799089E-1,4.872019153E-1
2.914740000E-1,1.268135506E0,-8.591351965E-1,-2.331539235E0,2.789687465E0
3.015350000E-1,8.969937982E-1,-1.756865817E0,-1.261402291E0,2.341433559E0
3.115960000E-1,4.366788357E-2,-6.895276433E-1,9.813498974E-2,6.978436295E-1
3.216580000E-1,7.289033782E-1,1.277154398E0,-1.386355535E0,2.020991133E0
3.317190000E-1,5.078053902E-1,7.936773714E-1,-9.838203460E-1,1.362238069E0
3.417800000E-1,-4.761862792E-1,-9.422060046E-1,-1.830598329E0,2.113195630E0
3.518410000E-1,-3.181872910E0,-3.385699246E0,-1.249817203E0,4.811373779E0
3.619020000E-1,-1.979517556E0,-4.561703829E0,7.450691754E-1,5.028196462E0
3.719630417E-1,-8.718607843E-1,-5.583744793E0,1.198665175E0,5.777122583E0
3.820250417E-1,1.232290320E0,-5.240190468E0,-4.462045348E-1,5.401595510E0
3.920860417E-1,3.227748702E0,-3.920001732E0,-2.095824523E0,5.493382901E0
4.021470418E-1,2.102841182E0,-3.592305349E0,-1.808338564E0,4.538357315E0
4.122080416E-1,1.458934977E0,-3.165148996E0,-2.530780184E-1,3.494382337E0
4.222690416E-1,2.127174077E0,-2.274632378E0,-2.305832536E0,3.875007831E0
4.323310417E-1,2.236687456E0,4.867149219E-1,-7.354241931E-1,2.404269314E0
4.423920417E-1,8.562335157E-1,-8.028117456E-2,1.854630970E0,2.044318208E0
4.524530417E-1,1.948941296E0,-1.868438658E-1,-1.343959129E-1,1.962484412E0
4.625140417E-1,6.536532211E-1,-6.438361115E-1,-1.214150357E0,1.521824090E0
4.725750417E-1,3.773732756E0,-7.452304123E-1,-2.096351942E0,4.380766913E0
4.826360417E-1,8.231053553E0,-4.369927143E0,-4.561366737E0,1.037557576E1
4.926980417E-1,5.602611419E0,-6.124297661E0,-1.745544613E1,1.932844733E1
5.027590417E-1,4.195602348E0,-1.188682926E1,-1.623148240E1,2.055141868E1
5.128200417E-1,2.019331248E0,-1.494614862E1,5.520730519E-1,1.509204565E1
5.228810417E-1,1.807374358E0,-1.563910566E1,9.907413443E0,1.860121149E1
5.329420416E-1,2.977051962E0,-1.275828542E1,1.143709768E1,1.739091396E1
5.430040417E-1,2.911657872E0,-7.612549115E0,8.452067195E0,1.174163939E1
5.530650417E-1,8.074501956E-1,-2.450437102E0,6.302222586E0,6.809891874E0
5.631260417E-1,-2.131278530E0,-7.501743793E-2,7.200940216E0,7.510094260E0
5.731870417E-1,-3.690928581E0,4.245803618E-1,8.849529925E0,9.597781106E0
5.832480417E-1,-2.299413462E0,-2.655203086E-1,9.667156030E0,9.940407890E0
5.933090417E-1,-2.489411134E-1,-1.282341755E0,8.520600071E0,8.620150673E0
6.033710417E-1,1.209119412E0,4.494801450E-1,4.888887413E0,5.056206314E0
6.134320417E-1,8.075718176E-1,2.284279114E-1,4.041822039E0,4.128035482E0
6.234930417E-1,-1.166199680E0,-1.919896422E0,3.333856370E0,4.020027644E0
6.335540417E-1,-1.694051811E0,-2.401373116E0,6.588844326E-1,3.011732570E0
6.436150417E-1,-2.018296875E0,-1.905947304E0,-1.873090630E0,3.348824557E0
6.536770416E-1,-2.004461194E0,-1.177394174E0,-2.483595785E0,3.401818593E0
6.637380417E-1,-7.104396254E-1,-2.874339772E0,-1.249829189E0,3.213818070E0
6.737990417E-1,6.553266943E-2,-3.521727701E0,-8.568512741E-1,3.625059260E0
6.838600417E-1,-5.767658436E-1,-1.594487761E0,-3.970031387E-1,1.741453861E0
6.939210417E-1,-8.448764688E-1,3.099784434E-1,-1.640924594E-1,9.147837002E-1
7.039820417E-1,-7.498194534E-1,1.153420590E0,-1.783783182E0,2.252663026E0
7.140440417E-1,-4.644115949E-1,1.549138511E0,-2.511235866E0,2.986940547E0
7.241050417E-1,-1.332118517E0,1.260922819E0,-2.819000846E0,3.363217488E0
7.341660417E-1,-2.983419580E0,1.360186322E0,-6.994230326E-1,3.352624613E0
7.442270417E-1,-5.963171786E0,1.605901526E0,7.096432931E0,9.407321500E0
7.542880417E-1,-9.946420219E0,3.697445887E0,1.921148311E1,2.194728832E1
7.643500417E-1,-1.049307524E1,6.298506095E0,1.774221464E1,2.155370009E1
7.744110416E-1,-8.964821230E0,6.464638356E0,6.833311150E0,1.299437224E1
7.844720416E-1,-9.769492829E0,5.932942266E0,3.266818920E-1,1.143457542E1
7.945330417E-1,-1.095288040E1,4.687083628E0,-9.486016890E-1,1.195132575E1
8.045940417E-1,-1.123540383E1,3.693869730E0,1.933990551E0,1.198412668E1
8.146550417E-1,-9.309109966E0,3.472695290E0,2.878361487E0,1.034427889E1
8.247170417E-1,-6.615199481E0,2.541141450E0,1.007472041E0,7.157741541E0
8.347780417E-1,-4.478075489E0,2.212160141E0,-9.185712665E-1,5.078443241E0
8.448390417E-1,-1.403148154E0,1.570378522E0,-3.022001848E-1,2.127495804E0
8.549000417E-1,5.569905603E-1,1.824426593E0,-1.665398115E0,2.532256259E0
8.649610417E-1,-1.534455568E-1,2.746393338E0,-3.994463685E0,4.849944539E0
8.750230417E-1,-1.891773069E0,2.599283824E0,-4.130001851E0,5.233736431E0
8.850840417E-1,-3.649649577E0,2.045934910E0,-2.566878262E0,4.908630736E0
8.951450416E-1,-4.265073118E0,2.593244820E0,2.401916907E0,5.539401793E0
9.052060416E-1,-3.071596177E0,3.322767418E0,5.079456357E0,6.802673244E0
9.152670417E-1,1.285861194E-1,4.051822824E0,6.573530468E0,7.723024369E0
9.253290417E-1,2.630514387E0,3.917537423E0,6.376275818E0,7.932439644E0
9.353900417E-1,2.622271568E0,2.567586068E0,4.636370142E0,5.913098552E0
9.454510417E-1,2.137752568E0,3.835171205E-1,2.839371668E0,3.574787111E0
9.555120417E-1,1.261080694E0,-1.154716333E0,2.130918927E0,2.732125509E0
9.655730417E-1,-7.451188767E-1,-4.193558747E-1,2.046271124E0,2.217721129E0
9.756340417E-1,-3.149407414E0,9.664956307E-1,2.432818564E0,4.095300603E0
9.856960417E-1,-3.449600542E0,1.302732165E0,3.296696438E0,4.946216978E0
9.957570417E-1,-9.596105343E-1,1.964242875E0,3.622376994E0,4.230923958E0
1.005818042E0,5.451610583E-1,2.161892213E0,3.082054507E0,3.803950381E0
1.015879042E0,5.085498869E-1,1.333432971E0,1.992558017E0,2.450908796E0
1.025940042E0,-9.247997206E-1,4.511264285E-1,1.081586084E0,1.492848966E0
1.036002042E0,-2.737992643E0,1.049374358E0,3.863471729E-1,2.957541951E0
1.046063042E0,-3.912293056E0,1.390658794E0,4.743044990E-1,4.179106794E0
1.056124042E0,-3.673470549E0,2.133510413E0,-2.340883085E-1,4.254532864E0
1.066185042E0,-2.274384456E0,2.539040546E0,-8.193118572E-2,3.409730820E0
1.076246042E0,-4.827578187E-1,3.501020957E0,1.835052153E0,3.982162636E0
1.086307042E0,1.148086175E0,3.591148769E0,2.409252531E0,4.474254028E0
1.096369042E0,1.243091735E0,3.329261336E0,2.818946759E0,4.536046620E0
1.106430042E0,2.886918302E0,2.982816440E0,2.700427206E0,4.952150875E0
1.116491042E0,5.040493435E0,1.036552291E0,1.579994268E0,5.383065726E0
1.126552042E0,5.190898440E0,6.366389930E-2,-3.780634224E-2,5.191426492E0
1.136613042E0,4.311881833E0,-6.242791486E-1,1.382895738E-2,4.356861329E0
1.146675042E0,3.717532827E0,-1.045323699E0,-5.221885175E-2,3.862056287E0
1.156736042E0,3.862347309E0,-8.126694202E-1,3.328960204E-1,3.960931466E0
1.166797042E0,3.204685822E0,2.341663688E-2,1.724982412E0,3.639522479E0
1.176858042E0,1.300610211E0,6.244153887E-1,2.659714213E0,3.025815790E0
1.186919042E0,9.144963419E-1,6.724145973E-1,2.527273609E0,2.770479533E0
1.196980042E0,9.171895695E-1,-1.749095160E-1,1.912636519E0,2.128381662E0
1.207042042E0,7.119330043E-1,2.056597307E-1,1.476985039E0,1.652461598E0
1.217103042E0,1.582420278E-1,5.742869166E-1,1.093836878E0,1.245522026E0
1.227164042E0,-1.115724760E-1,6.607400465E-1,7.749238890E-1,1.024467110E0
1.237225042E0,-3.504505312E-1,7.848279029E-2,2.351972330E-1,4.292934446E-1
1.247286042E0,-7.366234571E-1,2.758716345E-2,9.098679784E-1,1.170997398E0
1.257347042E0,-2.538469858E0,2.139823651E-1,1.513150068E0,2.962978366E0
1.267409042E0,-4.157567965E0,-9.657729149E-2,2.241547077E0,4.724323428E0
1.277470042E0,-3.810072032E0,-7.993056089E-2,2.547963397E0,4.584228970E0
1.287531042E0,-3.555091329E0,-2.103646928E-1,2.867530105E0,4.572270395E0
1.297592042E0,-3.934928797E0,-6.667404592E-1,3.708589803E0,5.448104790E0
1.307653042E0,-3.827773308E0,-9.444282389E-1,3.629598890E0,5.358897395E0
1.317715042E0,-9.920857362E0,-1.440999520E0,3.613148918E0,1.065620643E1
1.327776042E0,-2.987471700E0,-7.443552303E-1,6.726555026E-1,3.151430992E0
1.337837042E0,6.731795885E0,6.051400423E-2,-1.564871906E0,6.911552782E0
1.347898042E0,3.243445260E0,-1.449396122E0,-3.973519251E-1,3.574713251E0
1.357959042E0,-2.768182987E-1,-2.212810936E0,2.944918004E-1,2.249419043E0
1.368021042E0,-5.114770031E-1,-2.412085215E0,2.170702797E-1,2.475254192E0
1.378082042E0,9.437745202E-1,-1.572845462E0,9.075536504E-1,2.046510889E0
1.388143042E0,7.650227988E-1,-8.965603003E-1,2.337807450E-1,1.201554698E0
1.398204042E0,3.653195329E0,1.119133687E-1,-5.954792726E-1,3.703100900E0
1.408265042E0,3.690438584E0,3.697717783E-1,2.425471830E-1,3.716839685E0
1.418326042E0,9.390762824E-1,-3.629284894E-1,-1.979884762E-1,1.026051066E0
1.428388042E0,-1.272544160E0,3.698539317E-2,-9.392601773E-1,1.582070239E0
1.438449042E0,-1.472574484E-1,9.497316635E-1,-6.287206936E-1,1.148461884E0
1.448510042E0,1.164012237E0,1.021466182E0,-5.237321824E-1,1.634812848E0
1.458571042E0,2.264412614E0,7.776235485E-1,-9.317637545E-1,2.569133427E0
1.468632042E0,1.360105045E0,2.440972799E-1,-1.242700264E0,1.858432986E0
1.478693042E0,1.064797851E0,-2.183630991E-1,-1.703716966E0,2.020922662E0
1.488755042E0,-2.084234172E-1,-5.433893520E-1,-9.779178742E-1,1.137996343E0
1.498816042E0,-8.028279716E-1,-7.984539619E-1,-6.958727494E-1,1.329022334E0
1.508877042E0,-5.476127958E-1,-9.128474271E-1,-8.843451744E-1,1.383920730E0
1.518938042E0,-4.001764226E-1,-1.357969642E0,-1.178919713E0,1.842301389E0
1.528999042E0,5.401248515E-2,-1.249155590E0,-1.274029353E0,1.785065217E0
1.539061042E0,8.427644545E-1,-8.734412867E-1,-9.974472821E-1,1.571003720E0
1.549122042E0,7.521548313E-1,-4.958681533E-1,-9.561536604E-1,1.313716841E0
1.559183042E0,-1.223419948E0,-3.318984854E-1,-1.116056882E0,1.688933373E0
1.569244042E0,-6.820192337E-1,6.432112634E-1,-9.773140030E-1,1.354257592E0
1.579305042E0,-1.167959107E0,1.254601979E-1,-4.088134910E-1,1.243783425E0
1.589366042E0,-2.089455736E-1,5.641197780E-1,-7.752133262E-1,9.812466957E-1
1.599428042E0,-2.690450102E-1,1.043360204E0,-1.160368252E-1,1.083720572E0
1.609489042E0,-1.068623099E0,2.067162641E0,6.649267260E-1,2.420174429E0
1.619550042E0,-3.324879432E0,2.954862948E0,6.845686197E-1,4.500519134E0
1.629611042E0,4.444732327E0,3.791441925E0,2.224233691E-1,5.846379177E0
1.639672042E0,8.609036869E0,3.822191263E0,1.041558677E0,9.476787765E0
1.649734042E0,5.377234585E0,1.524394264E0,9.261726469E-1,5.665353071E0
1.659795042E0,1.352722936E0,-3.934065163E-1,-8.296801400E-1,1.634930323E0
1.669856042E0,2.555487009E0,-1.994771773E-1,-8.672473311E-2,2.564727311E0
1.679917042E0,1.873710435E0,-9.555256695E-2,9.300920355E-1,2.094037316E0
1.689978042E0,3.533297002E-2,1.976402745E-1,1.153948009E0,1.171283955E0
1.700039042E0,4.224016893E-1,1.194071310E0,1.739665940E0,2.151898479E0
1.710101042E0,1.854979464E0,2.587119569E0,2.972315133E0,4.355317867E0
1.720162042E0,1.126183675E0,2.990819816E0,2.316138253E0,3.946870817E0
1.730223042E0,1.051191965E0,3.525114701E0,1.878739625E0,4.130508538E0
1.740284042E0,1.870340100E0,3.106889678E0,1.712967699E0,4.010635099E0
1.750345042E0,1.985111588E0,2.683565590E0,8.395981872E-1,3.441964179E0
1.760407042E0,1.814695657E0,2.444098721E0,1.058018662E0,3.222753849E0
1.770468042E0,1.296746371E0,2.457359913E0,1.479336058E0,3.147793524E0
1.780529042E0,5.800250816E-1,2.433482808E0,1.665435391E0,3.005319070E0
1.790590042E0,2.644093376E-1,2.406642919E0,1.806048210E0,3.020538457E0
1.800651042E0,-3.877516741E-1,1.856548565E0,1.702074190E0,2.548368200E0
1.810712042E0,-8.359115177E-1,8.428305280E-1,7.947477043E-1,1.428543061E0
1.820774042E0,-2.183408797E-1,5.379321456E-1,8.323252011E-1,1.014795040E0
1.830835042E0,-1.121256226E-1,5.297349340E-1,1.355841841E0,1.459965189E0
1.840896042E0,-5.113431019E-1,-7.155033141E-2,1.622164972E0,1.702354374E0
1.850957042E0,-4.870245320E-1,-5.903962880E-2,1.808778859E0,1.874129007E0
1.861018042E0,-1.289443198E0,8.916202801E-1,1.922531762E0,2.480681129E0
1.871079042E0,-2.894658846E0,1.119120238E0,2.103638742E0,3.749236709E0
1.881141042E0,-4.438314423E0,1.306408895E0,2.309728535E0,5.171091280E0
1.891202042E0,-5.009347072E0,1.209224370E0,1.960916394E0,5.513707896E0
1.901263042E0,-5.077391120E0,1.273986669E0,2.175398111E0,5.668800540E0
1.911324042E0,-5.427333528E0,1.604528892E0,2.517356147E0,6.194154031E0
1.921385042E0,-5.787826068E0,1.720447311E0,2.634085282E0,6.587660800E0
1.931447042E0,-5.397767082E0,2.022960907E0,2.472862344E0,6.272424450E0
1.941508042E0,-4.827145493E0,2.065417540E0,2.381207238E0,5.765191336E0
1.951569042E0,-2.830805497E0,2.361943586E0,2.612069346E0,4.518312023E0
1.961630042E0,-6.600220084E-1,2.543099391E0,2.500265905E0,3.626887530E0
1.971691042E0,-6.206626457E-1,1.725192912E0,1.696677210E0,2.498044487E0
1.981752042E0,6.521317756E-1,1.137883953E0,1.238796955E0,1.804071407E0
1.991814042E0,3.508153390E0,9.739885452E-1,1.235928311E0,3.844907370E0
2.001875042E0,4.138604860E0,-2.992879790E-1,-1.564317298E-1,4.152360096E0
2.011936042E0,2.796725585E0,-2.000993210E0,-2.543074540E0,4.277017178E0
2.021997042E0,3.429569151E0,-3.065744283E0,-6.842208273E0,8.244789059E0
2.032058042E0,-2.353391449E0,-4.640590662E0,-5.300243711E0,7.427389609E0
2.042119042E0,-3.417118090E0,-3.199247911E0,-6.385112715E-1,4.724360261E0
2.052181042E0,-5.791003445E0,-5.935263026E-1,9.410311820E0,1.106534965E1
2.062242042E0,-7.431462016E0,1.732524151E0,4.395257866E0,8.806052426E0
2.072303042E0,-9.328144991E0,7.818651187E-1,3.679767416E0,1.005814547E1
2.082364042E0,-6.022170777E0,-1.993450302E-1,1.435782049E0,6.194170598E0
2.092425042E0,-4.516026258E0,-1.663296626E0,-2.495819682E-1,4.819060073E0
2.102487042E0,-5.540549072E0,-2.902656083E0,-7.176110892E-1,6.295876590E0
2.112548042E0,-5.117255682E0,-3.272752674E0,-1.518183497E-1,6.076204786E0
2.122609042E0,-4.287574958E0,-3.562759368E0,2.297955751E-4,5.574634821E0
2.132670042E0,-3.743366411E0,-3.652610607E0,-4.115170974E-1,5.246303713E0
2.142731042E0,-3.255976428E0,-3.431636726E0,3.475257540E-1,4.743235949E0
2.152792042E0,-2.681667584E0,-3.317495276E0,1.343449398E0,4.472356451E0
2.162854042E0,-2.327387127E0,-2.969598516E0,1.026658071E0,3.910149995E0
2.172915042E0,-1.897482875E0,-2.585598416E0,4.991493183E-1,3.245752682E0
2.182976042E0,-7.959726959E-1,-1.836518050E0,-8.905625188E-1,2.190769883E0
2.193037042E0,2.253335649E-1,-1.026797673E0,-1.276852389E0,1.653916776E0
2.203098042E0,1.699905458E0,-3.139288223E-1,-1.522936699E0,2.303815544E0
2.213159042E0,3.028413320E0,4.889666846E-1,-1.941662682E0,3.630486142E0
2.223221042E0,4.063399141E0,8.100270635E-1,-2.048027628E0,4.621879876E0
2.233282042E0,3.134667168E0,1.327981320E0,-2.184981405E0,4.045221426E0
2.243343042E0,2.993649868E0,1.999840724E0,-2.560996841E0,4.418145230E0
2.253404042E0,1.484623257E0,2.305917320E0,-2.652756026E0,3.815557029E0
2.263465042E0,-9.587071395E-1,3.057522221E0,-2.345493322E0,3.971007484E0
2.273527042E0,-8.895702463E-1,4.581735221E0,-6.378376722E-1,4.710676146E0
2.283588042E0,8.971891683E-1,4.533844478E0,-3.947063524E-1,4.638586774E0
2.293649042E0,3.485608866E0,4.134431702E0,-3.209912940E0,6.288603640E0
2.303710042E0,9.158424295E0,2.541383525E0,-3.900951211E0,1.027388856E1
2.313771042E0,7.657068645E0,2.106392488E0,-3.783052340E0,8.796537646E0
2.323833042E0,1.724934465E-1,3.289223696E0,2.182315367E-1,3.300965240E0
2.333894042E0,5.438504634E0,3.596455702E0,-2.767668140E0,7.083206421E0
2.343955042E0,1.391175395E1,1.603209614E0,-4.124668606E0,1.459863248E1
2.354016042E0,9.597087091E0,-6.773256737E-1,-2.231438411E0,9.876343862E0
2.364077042E0,8.258610311E0,-3.038537189E0,-2.744977727E0,9.218039664E0
2.374138000E0,7.933570610E0,-4.559003585E0,-6.534585088E-1,9.173497933E0
2.384200000E0,5.551099788E0,-2.944881166E0,1.664353217E0,6.500546559E0
2.394261000E0,5.709820118E0,-2.604420018E0,3.202008966E0,7.045417719E0
2.404322000E0,8.489805125E0,-4.219311054E0,5.838530198E0,1.113408333E1
2.414383000E0,7.167064372E0,-4.166066893E0,6.325317333E0,1.042749080E1
2.424444000E0,4.398632879E0,-2.615992243E0,5.536199913E0,7.539290158E0
2.434506000E0,3.170854416E0,-1.220343143E-1,5.670242069E0,6.497757708E0
2.444567000E0,3.899457248E0,1.223746807E0,5.912446606E0,7.187513335E0
2.454628000E0,1.126915746E0,1.486976469E0,4.531727786E0,4.900774923E0
2.464689000E0,-2.933306603E0,1.424638426E0,1.816131733E0,3.732588477E0
2.474750000E0,-2.295529742E0,-1.199080328E0,8.155918586E-1,2.715223841E0
2.484812000E0,-4.136840170E0,-4.005040129E0,5.869314619E0,8.222082894E0
2.494873000E0,-6.438328224E0,-1.522527832E0,8.087543001E0,1.044885224E1
2.504934000E0,-3.298631281E0,1.846658877E-1,4.016230822E0,5.200498037E0
2.514995000E0,-1.071009231E1,-5.730373666E-1,2.502227061E0,1.101342769E1
2.525056000E0,-1.322640181E1,-7.545590894E0,1.447507471E0,1.529604277E1
2.535117000E0,-1.165806396E1,-1.346755033E1,-2.247535796E0,1.795374013E1
2.545179000E0,-1.176929555E1,-6.507320691E0,-4.303180591E0,1.412015947E1
2.555240000E0,-6.113711861E0,-4.910727348E0,1.386395296E0,7.963341492E0
2.565301000E0,1.642167127E0,-2.901499211E0,2.181953425E0,3.984511425E0
2.575362000E0,5.092899106E0,-3.272634268E0,-2.466732123E0,6.537011834E0
2.585423000E0,7.647175156E0,-8.016547278E-1,-5.064788616E0,9.207280918E0
2.595485000E0,7.754707791E0,2.831432319E-1,-4.639308368E0,9.040953774E0
2.605546000E0,5.277875773E0,-5.863084996E-1,-2.222988015E0,5.756857306E0
2.615607000E0,1.186444495E0,-2.501810739E0,-9.681281734E-1,2.933254110E0
2.625668000E0,-1.905254409E0,-3.293575486E0,-4.835144484E-1,3.835546906E0
2.635729000E0,-3.207996515E0,-1.498022736E0,-3.285759805E0,4.830272379E0
2.645791000E0,-2.586543911E0,-2.723717836E-1,-6.196772144E0,6.720444985E0
2.655852000E0,-3.707881998E0,-7.834976614E-2,-4.575857600E0,5.890076431E0
2.665913000E0,4.539836705E-2,3.182945874E0,-3.569009457E0,4.782366982E0
2.675974000E0,2.053646218E0,3.407830957E0,-2.912010751E0,4.930576156E0
2.686035000E0,1.044534325E0,5.601194054E-1,-2.224570856E0,2.520615242E0
2.696097000E0,2.411317475E0,6.070819026E-1,-2.423492840E0,3.472220896E0
2.706158000E0,-6.444725078E-1,7.153436852E-1,-2.968511226E0,3.120756367E0
2.716219000E0,-1.795546610E0,2.650662723E0,-2.493198375E0,4.057836695E0
2.726280000E0,-1.800247772E0,3.790378025E0,-2.728459343E0,5.005232062E0
2.736341000E0,-3.336547551E0,1.393892596E0,-3.321745617E0,4.910140535E0
2.746402000E0,-2.517851990E0,1.785936711E0,-3.369743364E0,4.569936424E0
2.756464000E0,-2.272030367E0,1.922850435E0,-2.408555835E0,3.828918515E0
2.766525000E0,-1.167234052E0,2.412571703E0,-2.317997083E-1,2.690105697E0
2.776586000E0,1.426410132E0,4.077913100E0,7.767792106E-1,4.389465464E0
2.786647000E0,1.912115532E0,4.308755327E0,1.694450006E-1,4.717019174E0
2.796708000E0,-1.018871480E0,1.951368476E0,-2.969909003E-1,2.221292780E0
2.806770000E0,-3.753962150E0,-1.746664472E0,-1.223350366E0,4.317366642E0
2.816831000E0,-3.903839151E0,-3.655638295E0,-2.323048200E0,5.830969423E0
2.826892000E0,-3.221518786E0,-3.777361538E0,-2.270245796E0,5.458998026E0
2.836953000E0,-1.651191135E0,-4.439078654E0,-1.436177321E0,4.949187485E0
2.847014000E0,6.466669679E-2,-3.512556344E0,-9.369870722E-2,3.514400845E0
2.857075000E0,9.371385151E-1,-2.163002014E0,1.445652149E0,2.765269688E0
2.867137000E0,1.374322550E0,-1.752238038E0,2.516121215E0,3.360054550E0
2.877198000E0,1.248946552E0,-3.412610471E-1,2.891435861E0,3.168079534E0
2.887259000E0,6.599916029E-1,1.968983213E0,2.277054879E0,3.081795374E0
2.897320000E0,3.709988165E0,9.573166716E-1,1.033825588E0,3.968534079E0
2.907381000E0,6.332273766E0,2.058953735E0,1.872318505E0,6.916831508E0
2.917443000E0,6.893885965E0,3.363750553E0,3.452102566E0,8.411747358E0
2.927504000E0,6.249914564E0,4.008961564E0,3.604127249E0,8.253662103E0
2.937565000E0,4.431055689E0,3.456192693E0,2.069346576E0,5.988465388E0
2.947626000E0,1.754689191E0,8.272745955E-1,8.013281608E-1,2.098915014E0
2.957687000E0,-8.022906125E-2,-1.674543160E0,1.149734505E0,2.032835687E0
2.967749000E0,6.740670204E-2,-7.216569239E-1,9.361380565E-1,1.183928562E0
2.977810000E0,-9.996160144E-1,1.257282343E0,1.004785538E-1,1.609374725E0
2.987871000E0,-2.506803092E0,2.587728556E0,8.485066395E-2,3.603831358E0
2.997932000E0,-2.442203053E0,1.934185263E0,1.111995991E0,3.307863883E0
3.007993000E0,-2.081518140E0,1.644463913E0,1.554764702E0,3.074780091E0
3.018054000E0,-2.698017569E0,2.797583957E0,7.214458394E-1,3.953006311E0
3.028116000E0,-2.792674634E0,2.506066343E0,8.942708230E-1,3.857346294E0
3.038177000E0,-1.658176219E0,8.389953393E-1,1.967246590E0,2.706200417E0
3.048238000E0,-9.791712248E-1,4.948024982E-1,2.607564066E0,2.828956726E0
3.058299000E0,-1.545044875E0,-3.736259705E-1,3.199408125E0,3.572530249E0
3.068360000E0,-2.575409642E0,-4.589654982E-1,3.708002450E0,4.537914315E0
3.078422000E0,-2.990948455E0,-5.697041613E-1,3.703073248E0,4.794067894E0
3.088483000E0,-3.566962346E0,-8.481579262E-1,4.245329994E0,5.609404514E0
3.098544000E0,-4.040000923E0,-7.050508314E-1,4.029734967E0,5.749562421E0
3.108605000E0,-4.953044817E0,-1.057913924E0,3.610385524E0,6.219864827E0
3.118666000E0,-4.548982919E0,-1.150311041E-1,2.754698138E0,5.319289388E0
3.128727000E0,-4.660831384E0,-3.872026205E-3,2.027845963E0,5.082865671E0
3.138789000E0,-3.592999413E0,5.622314197E-1,1.804649556E0,4.059865634E0
3.148850000E0,-1.748265148E0,2.111000386E0,1.624492164E0,3.186177717E0
3.158911000E0,-1.640217081E-1,2.372334089E0,1.481741749E0,2.801862017E0
3.168972000E0,3.598063686E-1,1.018358095E0,2.068233851E0,2.333260614E0
3.179033000E0,-8.781053182E-1,4.482949144E-1,4.378862858E-1,1.078787134E0
3.189095000E0,-2.530540448E0,1.170942941E0,-7.899635124E-1,2.898065680E0
3.199156000E0,-2.645971210E0,1.421814221E0,8.959747930E-2,3.005120135E0
3.209217000E0,-1.788250747E0,9.572541064E-1,2.032667577E0,2.871569891E0
3.219278000E0,-5.038358617E-1,1.219097101E0,2.512933313E0,2.838112428E0
3.229339000E0,5.702975075E-1,1.462792093E0,1.404611127E0,2.106640067E0
3.239401000E0,1.337733452E0,1.703871040E0,6.381607309E-2,2.167205528E0
3.249462000E0,1.681741960E0,2.039488354E0,-1.033826904E0,2.838409208E0
3.259523000E0,1.638548139E0,2.314095236E0,-1.217507536E0,3.085806437E0
3.269584000E0,1.275440286E0,1.835019409E0,2.808170925E0,3.588853313E0
3.279645000E0,1.327127334E0,1.625984958E0,5.638250198E0,6.016224675E0
3.289707000E0,2.111951436E0,-1.230508527E0,7.393755076E0,7.787304041E0
3.299768000E0,2.191860655E0,-5.078830120E0,7.060897062E0,8.969673118E0
3.309829000E0,2.179576093E0,-6.505306910E0,5.853371601E0,9.018399472E0
3.319890000E0,2.724757178E0,-7.546698942E0,3.835588696E0,8.893183189E0
3.329951000E0,2.694508070E0,-1.207616444E1,1.096447075E0,1.242160688E1
3.340013000E0,2.110151955E0,-1.288864792E1,-2.324032579E0,1.326541043E1
3.350074000E0,1.135525479E0,-1.366332915E1,-2.114494098E0,1.387252921E1
3.360135000E0,-2.685472075E0,-1.444981941E1,-3.315916235E0,1.506666326E1
3.370196167E0,-3.286240447E0,-1.144671284E1,-5.453691607E0,1.309844889E1
3.380257167E0,3.065535099E-1,-5.113740336E0,-4.269659674E0,6.668906133E0
3.390318167E0,2.971890332E0,1.374577489E0,-5.050988603E0,6.019475167E0
3.400380167E0,3.133727521E0,4.269193650E0,-7.751918085E0,9.388210511E0
3.410441167E0,7.705833547E-1,5.630610811E0,-7.872085383E0,9.709135136E0
3.420502167E0,-4.660265958E-1,5.955047080E0,-6.614240538E0,8.912235657E0
3.430563167E0,7.952002239E-2,6.106583521E0,-5.361731862E0,8.126798526E0
3.440624167E0,9.188010621E-1,5.836249784E0,-4.759729435E0,7.586898657E0
3.450686167E0,1.466929875E0,5.591146783E0,-3.959139193E0,7.006253547E0
3.460747167E0,2.016927019E0,5.454729488E0,-3.132758637E0,6.605773616E0
3.470808167E0,2.001900406E0,5.693083633E0,-2.889816767E0,6.691027382E0
3.480869167E0,2.037454108E0,6.254239165E0,-3.016608961E0,7.236480940E0
3.490930167E0,1.101213798E0,6.238115467E0,-2.693558482E0,6.883459429E0
3.500992167E0,-3.061558262E-2,5.766321763E0,-2.088239515E0,6.132874388E0
3.511053167E0,-9.706737587E-1,4.573367563E0,-1.130684277E0,4.810025504E0
3.521114167E0,-1.456022186E0,3.905223772E0,-8.300146008E-1,4.249670288E0
3.531175167E0,-1.840693547E0,3.582353972E0,-5.346752465E-2,4.027936381E0
3.541236167E0,-1.701055459E0,3.451821899E0,8.862934667E-1,3.948946722E0
3.551298167E0,-1.670100738E0,3.198201844E0,1.750479196E0,4.010225545E0
3.561359167E0,-2.397779856E0,2.595931615E0,2.461517576E0,4.306655078E0
3.571420167E0,-3.152166131E0,1.564820158E0,3.875130492E0,5.234639412E0
3.581481167E0,-4.646389931E0,-6.703832746E-3,5.284518794E0,7.036698318E0
3.591542167E0,-5.447317557E0,-2.297865704E0,6.090735812E0,8.488257660E0
3.601604167E0,-5.590483709E0,-4.281349427E0,5.909423010E0,9.192646046E0
3.611665167E0,-4.901084997E0,-5.728846958E0,5.140392530E0,9.124908601E0
3.621726167E0,-3.102724706E0,-6.560735591E0,4.557836189E0,8.569948823E0
3.631787167E0,-1.206986567E0,-6.598938375E0,4.031561052E0,7.826639685E0
3.641848167E0,3.119881314E-1,-5.750317349E0,3.060693458E0,6.521604914E0
3.651909167E0,1.655917439E0,-4.798124592E0,1.593092031E0,5.319962818E0
3.661971167E0,3.096844454E0,-3.566061291E0,4.139998251E-1,4.741163840E0
3.672032167E0,4.995250604E0,-1.695251074E0,2.946756953E-1,5.283298077E0
3.682093167E0,6.637014858E0,4.655979949E-1,8.758883464E-1,6.710732308E0
3.692154167E0,7.876684803E0,2.883868394E0,2.112928798E0,8.650047890E0
3.702215167E0,8.368137431E0,5.339598396E0,2.121633548E0,1.015078145E1
3.712277167E0,9.013893403E0,6.734207861E0,5.859021181E-1,1.126690335E1
3.722338167E0,1.049373715E1,7.191806281E0,-5.887251538E-1,1.273527362E1
3.732399167E0,9.892432877E0,6.438703616E0,-2.006758565E0,1.197264434E1
3.742460167E0,8.026698044E0,4.300207282E0,-2.565343661E0,9.460478437E0
3.752521167E0,6.528832598E0,5.250530684E-1,7.343623388E-1,6.590950148E0
3.762583167E0,2.288577695E0,-5.420136775E0,5.193525009E0,7.847813234E0
3.772644167E0,-3.638422338E0,-1.099960550E1,2.589552303E0,1.187161402E1
3.782705167E0,-6.002767961E0,-9.410055127E0,-8.371039989E0,1.395194148E1
3.792766167E0,-4.673626554E0,-2.317620522E0,-1.179971393E1,1.290144949E1
3.802827167E0,-5.467905311E-1,1.377014024E0,-4.875870926E0,5.096004787E0
3.812888167E0,5.264264332E-1,1.892975841E0,-5.033230609E-1,2.028254528E0
3.822950167E0,-1.640549349E0,2.831583762E0,-2.053445073E0,3.863405937E0
3.833011167E0,-3.995297936E-1,2.556060621E0,-4.221362257E0,4.951057388E0
3.843072167E0,2.560751842E0,7.182421499E-1,-3.910777457E0,4.729429364E0
3.853133167E0,2.319029994E0,9.754325151E-3,-4.230132496E0,4.824107813E0
3.863194167E0,1.629643853E0,-1.578787987E0,-5.293721142E0,5.759495996E0
3.873256167E0,4.406720455E-1,-2.967664257E0,-5.348974407E0,6.132923463E0
3.883317167E0,-1.239089024E0,-2.756192687E0,-5.970473204E0,6.691673185E0
3.893378167E0,-1.695266716E0,-2.588078805E0,-6.880517476E0,7.544110410E0
3.903439167E0,-1.452481112E0,-1.942928020E0,-7.539866470E0,7.920496011E0
3.913500167E0,-7.554679368E-1,-8.037711275E-1,-7.055769639E0,7.141474990E0
3.923562167E0,-1.542440233E0,4.677404147E-1,-6.014500399E0,6.226726108E0
3.933623167E0,-1.721721127E0,1.158480186E0,-4.111298363E0,4.605341921E0
3.943684167E0,-1.682374044E0,1.208794307E0,-2.881450571E0,3.548848192E0
3.953745167E0,-1.936044677E0,2.404686733E0,-2.757892180E0,4.139656574E0
3.963806167E0,-1.618089901E0,3.001579278E0,-4.955290148E-1,3.445757114E0
3.973868167E0,4.968786252E-1,7.258780289E-1,-2.366163522E-1,9.109196337E-1
3.983929167E0,1.537297753E0,-2.474033541E0,-1.815127181E0,3.432027539E0
3.993990167E0,8.846375352E-1,-4.905584722E0,-2.295867126E0,5.488018849E0
4.004051167E0,1.985651395E-1,-5.979135270E0,-1.243887541E0,6.110379931E0
4.014112167E0,-1.525296343E0,-5.323885174E0,-7.049713093E-1,5.582765159E0
4.024174167E0,-3.350049649E0,-2.442006587E0,5.190752406E-2,4.145952630E0
4.034235167E0,-4.907520150E0,2.078790414E-1,4.744676729E-1,4.934783409E0
4.044296167E0,-5.584275135E0,1.737515919E0,5.205752707E-1,5.871463954E0
4.054357167E0,-4.463088491E0,1.844607089E0,9.080655742E-1,4.913890239E0
4.064418167E0,-3.556914783E0,1.825330573E0,1.053799238E0,4.134485132E0
4.074479167E0,-2.378612244E0,2.208206838E0,1.036526563E0,3.407104484E0
4.084541167E0,-4.922898766E-1,2.342258935E0,2.286786400E0,3.310274653E0
4.094602167E0,6.865944059E-2,2.403868123E0,2.913778657E0,3.778015634E0
4.104663167E0,2.629849925E-1,2.757884286E0,2.281174389E0,3.588710553E0
4.114724167E0,1.001025047E0,2.104956120E0,1.898813263E0,3.006390397E0
4.124785167E0,2.201579458E0,1.222928197E0,1.280063095E0,2.825078231E0
4.134847167E0,2.642205018E0,1.060122417E0,1.870624713E0,3.406514893E0
4.144908167E0,2.330287053E0,1.013990225E0,3.521643502E0,4.342854692E0
4.154969167E0,6.427879250E-1,1.064517184E0,3.759207395E0,3.959547119E0
4.165030167E0,-2.220696199E0,9.067008340E-1,3.185729148E0,3.987789891E0
4.175091167E0,-4.568440991E0,3.666204214E-2,2.721309367E0,5.317661316E0
4.185153167E0,-5.834296814E0,-1.021109794E0,2.226482311E0,6.327630521E0
4.195214167E0,-6.214415533E0,-2.158652855E0,3.025865980E0,7.241174455E0
4.205275167E0,-6.178839903E0,-2.830731238E0,5.066307138E0,8.476943430E0
4.215336167E0,-5.455014832E0,-2.870716252E0,6.812676326E0,9.187532712E0
4.225397167E0,-4.976443035E0,-2.008642538E0,6.768343906E0,8.637714360E0
4.235459167E0,-5.046564599E0,-1.667267470E0,4.750951595E0,7.128754178E0
4.245520167E0,-5.703765911E0,-1.939530203E0,4.639075649E0,7.603666606E0
4.255581167E0,-5.932311351E0,-2.458216238E0,5.690979220E0,8.580349033E0
4.265642167E0,-5.937851003E0,-2.948583623E0,6.963777734E0,9.614906149E0
4.275703167E0,-6.085666861E0,-3.711471019E0,7.341084527E0,1.023239367E1
4.285765167E0,-6.655712500E0,-4.608623350E0,5.869504654E0,9.999450132E0
4.295826167E0,-6.736918046E0,-5.484583617E0,3.847393640E0,9.501008369E0
4.305887167E0,-6.233851678E0,-5.432721153E0,3.341258945E0,8.918485141E0
4.315948167E0,-5.463797350E0,-5.122656171E0,3.071611379E0,8.095028363E0
4.326009167E0,-5.710301344E0,-4.592355226E0,5.741207094E-1,7.350298127E0
4.336071167E0,-5.826160998E0,-3.622086972E0,-1.565794451E0,7.036716441E0
4.346132167E0,-4.246002716E0,-2.800759580E0,-9.658103371E-1,5.177410829E0
4.356193167E0,-1.192841495E0,-2.467790469E0,-1.865296876E-1,2.747299393E0
4.366254167E0,5.462553647E-1,-3.301627979E0,-7.835526983E-1,3.437018631E0
4.376315250E0,1.699516911E0,-4.604530883E0,-1.236020697E0,5.061403911E0
4.386377250E0,2.528904690E0,-6.275919471E0,-1.551148199E0,6.941799829E0
4.396438250E0,2.534468023E0,-7.698895533E0,-1.698122642E0,8.281312764E0
4.406499250E0,2.572517610E0,-7.864442487E0,-1.388051228E0,8.390112556E0
4.416560250E0,3.558419857E0,-7.555797794E0,-9.671551236E-1,8.407604963E0
4.426621250E0,3.822882404E0,-7.056861899E0,-3.580320311E-1,8.033798396E0
4.436683250E0,4.694781488E0,-6.808462238E0,-2.423857999E-1,8.273746560E0
4.446744250E0,5.315144756E0,-7.184180342E0,3.632587110E-1,8.944001781E0
4.456805250E0,5.182910559E0,-6.911257458E0,9.714755581E-1,8.693204603E0
4.466866250E0,4.749932718E0,-5.445385637E0,7.563560557E-1,7.265408457E0
4.476927250E0,4.664641430E0,-3.937769959E0,-5.797660500E-1,6.131968737E0
4.486989250E0,5.939112248E0,-2.594923555E0,-3.180937940E0,7.219767914E0
4.497050250E0,4.312854810E0,-1.505652768E0,-6.038651154E0,7.571856749E0
4.507111250E0,1.723716051E0,-5.494611007E-1,-8.507256140E0,8.697500305E0
4.517172250E0,-1.616418036E0,-8.252701700E-2,-7.912796037E0,8.076630430E0
4.527233250E0,-2.485384156E0,3.783136833E-1,-2.241982403E0,3.368492354E0
4.537294250E0,-2.632331702E0,1.316621057E0,-1.386688242E0,3.253546600E0
4.547356250E0,-1.975070457E0,1.737219465E0,-3.143246203E0,4.098637758E0
4.557417250E0,-3.201843198E-1,2.770062282E0,-4.697659487E0,5.462944966E0
4.567478250E0,6.897903295E-1,4.327974540E0,-4.832158896E0,6.523567575E0
4.577539250E0,1.069556169E0,4.935700806E0,-5.857137208E0,7.733766813E0
4.587600250E0,8.761098097E-1,5.187006533E0,-7.034048402E0,8.783532439E0
4.597662250E0,9.856728901E-1,5.300552444E0,-6.850794325E0,8.717843205E0
4.607723250E0,1.614045382E0,5.324822482E0,-6.591739867E0,8.626117982E0
4.617784250E0,2.831664453E0,5.301066999E0,-6.490171393E0,8.845448525E0
4.627845250E0,3.902226782E0,5.824305092E0,-6.057358151E0,9.265068345E0
4.637906250E0,4.502306351E0,6.403704522E0,-5.794821092E0,9.739514647E0
4.647968250E0,4.906328487E0,6.812865776E0,-5.587655411E0,1.008509258E1
4.658029250E0,4.817225107E0,7.408467255E0,-5.469924062E0,1.039283956E1
4.668090250E0,4.132281388E0,8.018331848E0,-5.318245534E0,1.047153908E1
4.678151250E0,2.938759424E0,7.901807365E0,-4.338629336E0,9.481485701E0
4.688212250E0,1.627254973E0,7.367031546E0,-2.800132758E0,8.047475133E0
4.698274250E0,2.258914623E-1,6.597686486E0,-7.788081944E-1,6.647333008E0
4.708335250E0,-8.268139080E-1,5.204521868E0,1.926461091E0,5.610875283E0
4.718396250E0,-1.491329429E0,3.194998155E0,5.144374484E0,6.236719130E0
4.728457250E0,-2.446597236E0,2.813224089E-1,8.343184438E0,8.699063565E0
4.738518250E0,-4.420844112E0,-4.736206672E0,1.211177164E1,1.373573910E1
4.748580250E0,-8.195739879E0,-9.825598032E0,1.431125795E1,1.919699541E1
4.758641250E0,-1.098083594E1,-1.238868525E1,1.035436876E1,1.952616789E1
4.768702250E0,-8.707727344E0,-1.174387068E1,4.099091715E0,1.518372705E1
4.778763250E0,-3.249959935E0,-9.503065032E0,6.514646083E-1,1.006453629E1
4.788824250E0,1.058261906E0,-6.110878885E0,1.788569713E-1,6.204413657E0
4.798886250E0,3.673441605E0,-1.713215475E0,7.906458825E-1,4.129697495E0
4.808947250E0,4.977466298E0,2.751587420E0,1.206408935E0,5.813933831E0
4.819008250E0,5.552597260E0,6.666384838E0,1.407787043E0,8.789419064E0
4.829069250E0,6.829484732E0,7.323483823E0,1.429938634E0,1.011533497E1
4.839130250E0,9.680515748E0,5.763674144E0,8.633180022E-2,1.126675543E1
4.849192250E0,7.759918245E0,3.777893050E0,-3.596816475E0,9.350181593E0
4.859253250E0,5.914219481E0,1.423223984E-1,-2.756794073E0,6.526726691E0
4.869314250E0,5.852008615E0,-6.600872049E0,2.781636261E0,9.249595500E0
4.879375250E0,1.324520791E0,-1.820429320E1,7.675352304E0,1.980054744E1
4.889436250E0,-6.569711652E0,-2.103182191E1,-3.998471659E0,2.239389247E1
4.899498250E0,-5.203523748E0,-5.955165778E0,-1.431652512E1,1.635553577E1
4.909559250E0,-3.848677542E-2,4.594784160E0,-5.409764400E0,7.097821748E0
4.919620250E0,4.462311104E0,6.771486785E0,7.963437018E-1,8.148583739E0
4.929681250E0,6.159117830E0,7.962371070E0,-1.874805911E0,1.023957923E1
4.939742250E0,6.178430598E0,7.019549062E0,-4.034476474E0,1.018450166E1
4.949804250E0,5.942189053E0,3.753893153E0,-5.492375032E0,8.920062109E0
4.959865250E0,4.948661159E0,7.002128452E-1,-6.601040449E0,8.279690834E0
4.969926250E0,3.050172563E0,-1.061003593E0,-6.318705302E0,7.096148109E0
4.979987250E0,6.303343789E-1,-2.366896763E0,-6.487976933E0,6.934938096E0
4.990048250E0,-9.874034467E-1,-3.583738593E0,-6.424900678E0,7.422768796E0
5.000109250E0,-1.707239475E0,-4.106482596E0,-6.666416997E0,8.013674657E0
5.010171250E0,-2.218648796E0,-3.241948373E0,-6.516317217E0,7.608877828E0
5.020232250E0,-2.005701534E0,-1.542958589E0,-5.578630818E0,6.125739274E0
5.030293250E0,-1.812915472E0,-7.986922359E-1,-4.813159246E0,5.204908618E0
5.040354250E0,-1.106439528E0,-1.082997310E0,-4.189755718E0,4.466670413E0
5.050415250E0,-6.599126655E-1,-1.394001939E0,-2.722718546E0,3.129204758E0
5.060477250E0,-8.917974508E-1,-1.065924025E0,-1.057862615E0,1.746588111E0
5.070538250E0,-9.542235676E-1,-3.018823886E-1,4.022964768E-1,1.078664938E0
5.080599250E0,-9.812816311E-1,3.744428265E-1,8.653043014E-1,1.360835260E0
5.090660250E0,-1.549858157E0,1.233443829E0,6.871881723E-2,1.981960207E0
5.100721250E0,-1.452003687E0,1.977990848E0,2.222433114E-1,2.463768373E0
5.110783250E0,-1.876842496E0,2.075502525E0,8.702294111E-2,2.799610951E0
5.120844250E0,-2.410172444E0,2.569440805E0,-1.255208336E0,3.739853637E0
5.130905250E0,-2.244655457E0,3.023373020E0,-2.194934828E0,4.358554971E0
5.140966250E0,-1.712092810E0,2.673782029E0,-2.312159808E0,3.927652620E0
5.151027250E0,-1.020541737E0,1.969455668E0,-3.578764951E-1,2.246850385E0
5.161089250E0,-8.915447780E-1,1.363362529E0,1.809510931E0,2.434735979E0
5.171150250E0,-1.275711451E0,6.118848056E-1,1.926188611E0,2.389988554E0
5.181211250E0,-1.591624818E0,-2.239191234E-2,2.050367099E0,2.595722674E0
5.191272250E0,-1.681818704E0,1.450904703E-1,2.571218358E0,3.075829847E0
5.201333250E0,-2.012577860E0,6.872004515E-1,3.234596668E0,3.871088957E0
5.211395250E0,-1.862117307E0,1.488926808E0,3.018567778E0,3.846574493E0
5.221456250E0,-8.535015504E-1,2.020628160E0,2.805813328E0,3.561459180E0
5.231517250E0,-3.906145074E-1,2.296292803E0,2.690770530E0,3.558902411E0
5.241578250E0,2.777401488E-1,2.209826517E0,2.320362282E0,3.216295065E0
5.251639250E0,9.026026668E-1,1.737933995E0,1.972817963E0,2.779769210E0
5.261701250E0,1.058303422E0,1.351830651E0,1.104390664E0,2.041355182E0
5.271762250E0,1.453685054E-1,5.060513717E-1,9.185895391E-1,1.058785500E0
5.281823250E0,-1.566893143E0,-3.647346944E-1,1.867349249E0,2.464787767E0
5.291884250E0,-3.108591218E0,-1.157135911E0,3.514049138E0,4.832271124E0
5.301945250E0,-4.224609801E0,-1.893015018E0,4.643291199E0,6.556751252E0
5.312007250E0,-4.969398894E0,-2.663150037E0,4.764894866E0,7.381836937E0
5.322068250E0,-5.087805596E0,-2.951555763E0,4.014010342E0,7.121076199E0
5.332129250E0,-4.655674725E0,-2.535505319E0,3.285280041E0,6.236758719E0
5.342190250E0,-4.322922546E0,-1.989476534E0,2.712550238E0,5.477554656E0
5.352251250E0,-4.843846895E0,-1.625351120E0,2.856986990E0,5.853801642E0
5.362313250E0,-5.062103575E0,-1.659467869E0,3.606346267E0,6.433075440E0
5.372374625E0,-4.690108393E0,-2.610174848E0,5.538129494E0,7.712393128E0
5.382435625E0,-4.485064666E0,-3.166317562E0,6.199036771E0,8.280665967E0
5.392496625E0,-4.541859841E0,-3.291035748E0,5.867705466E0,8.117227023E0
5.402557625E0,-4.926890806E0,-3.456692045E0,5.572474869E0,8.202161245E0
5.412619625E0,-5.388784590E0,-3.996846718E0,4.974662558E0,8.352308100E0
5.422680625E0,-5.558770165E0,-4.662261028E0,4.775526273E0,8.685750102E0
5.432741625E0,-5.335222925E0,-5.098280298E0,4.469337995E0,8.627400986E0
5.442802625E0,-4.932996469E0,-4.991649304E0,3.196400317E0,7.711549255E0
5.452863625E0,-4.104426130E0,-4.354653631E0,2.143709711E0,6.356478068E0
5.462925625E0,-3.061683392E0,-3.400033695E0,1.596986861E0,4.846081031E0
5.472986625E0,-1.890579945E0,-2.959364135E0,7.087888833E-1,3.582528477E0
5.483047625E0,5.525430219E-1,-3.092603468E0,-4.653389633E-1,3.175852697E0
5.493108625E0,2.388454862E0,-3.845876287E0,-1.537076290E0,4.781012923E0
5.503169625E0,3.196994979E0,-5.708386965E0,-2.439428549E0,6.982640639E0
5.513231625E0,3.141964201E0,-7.356615901E0,-2.017550771E0,8.249984707E0
5.523292625E0,3.325879014E0,-7.567845397E0,-1.630418901E0,8.425676291E0
5.533353625E0,4.462074291E0,-7.399591182E0,-7.971381191E-1,8.677527633E0
5.543414625E0,4.741294334E0,-7.481673226E0,3.739620392E-1,8.865390788E0
5.553475625E0,4.666165214E0,-7.592919427E0,1.494922543E0,9.036609798E0
5.563537625E0,4.477159815E0,-7.742081314E0,2.144285515E0,9.196887705E0
5.573598625E0,3.786372682E0,-7.344639634E0,2.175066574E0,8.544662898E0
5.583659625E0,3.585267640E0,-5.658992611E0,7.962849373E-1,6.746288693E0
5.593720625E0,3.347890565E0,-3.704530959E0,-1.846138474E0,5.323546574E0
5.603781625E0,2.719272782E0,-2.002559094E0,-5.399351678E0,6.368491653E0
5.613843625E0,1.898191265E0,-1.098725735E0,-8.533959789E0,8.811288101E0
5.623904625E0,-6.703686565E-1,-6.041220421E-1,-8.548373176E0,8.595873518E0
5.633965625E0,-1.036958965E0,-2.391055119E-1,-4.831663929E0,4.947467197E0
5.644026625E0,-1.015590315E0,5.582494658E-1,-2.413880895E0,2.677664491E0
5.654087625E0,-1.665902291E0,1.405068964E0,-2.849784682E0,3.587578845E0
5.664149625E0,-7.064652729E-1,2.538761049E0,-4.546335885E0,5.254861637E0
5.674210625E0,8.564662349E-1,3.466265107E0,-5.017141410E0,6.157940900E0
5.684271625E0,1.057026609E0,4.359740708E0,-6.738625433E0,8.095289805E0
5.694332625E0,1.057969765E0,5.127869548E0,-7.050861486E0,8.782311417E0
5.704393625E0,1.669804138E0,6.134392294E0,-6.128771365E0,8.830676821E0
5.714455625E0,2.251096750E0,7.022929337E0,-6.361808052E0,9.739690690E0
5.724516625E0,3.245333326E0,7.767319066E0,-7.045579112E0,1.097741403E1
5.734577625E0,3.780910213E0,8.219041618E0,-6.344747046E0,1.105005621E1
5.744638625E0,4.342465695E0,8.219776613E0,-5.371591437E0,1.073665360E1
5.754699625E0,4.662967957E0,8.369771728E0,-5.015490156E0,1.081441124E1
5.764761625E0,4.993394698E0,8.651043851E0,-4.725520885E0,1.105011755E1
5.774822625E0,4.423499917E0,7.596842909E0,-4.058478709E0,9.682490544E0
5.784883625E0,2.825441846E0,6.062503116E0,-3.068117376E0,7.358696209E0
5.794944625E0,1.224437948E0,5.209432944E0,-1.211665875E0,5.486854662E0
5.805005625E0,-5.550098891E-1,4.036341151E0,1.251239830E0,4.262122356E0
5.815067625E0,-1.806934648E0,1.887006419E0,3.798241945E0,4.610037735E0
5.825128625E0,-2.865070181E0,-1.550980384E0,7.145216836E0,7.852916078E0
5.835189625E0,-4.999835991E0,-5.340685394E0,1.038330780E1,1.270174639E1
5.845250625E0,-7.508405526E0,-8.170436053E0,1.045280196E1,1.524444973E1
5.855311625E0,-8.330539834E0,-8.755755789E0,6.468513306E0,1.370776487E1
5.865373625E0,-6.663836621E0,-7.739058888E0,2.265856292E0,1.046106379E1
5.875434625E0,-4.060046348E0,-5.827771322E0,8.216945976E-1,7.149970415E0
5.885495625E0,-1.609665671E0,-3.541552101E0,1.373999784E0,4.125710880E0
5.895556625E0,5.883224268E-1,-1.108231553E0,1.622170819E0,2.050789755E0
5.905617625E0,2.269346202E0,1.467404961E0,1.476695894E0,3.079584431E0
5.915679625E0,3.877625499E0,3.958594818E0,1.060058683E0,5.641823894E0
5.925740625E0,4.785199907E0,5.502836870E0,1.115586766E0,7.377254611E0
5.935801625E0,5.786891098E0,4.730531364E0,3.624753302E-1,7.483142651E0
5.945862625E0,8.372377832E0,2.380248880E0,-3.594108045E-2,8.704228113E0
5.955923625E0,9.747417836E0,1.333638793E-1,-1.973420080E0,9.946070943E0
5.965985625E0,1.007392577E1,-2.571491423E0,-3.903124037E0,1.110544578E1
5.976046625E0,1.084577812E1,-8.344701206E0,1.912828892E0,1.381751988E1
5.986107625E0,6.095392535E0,-1.813148367E1,1.331732601E1,2.330784594E1
5.996168625E0,-7.391677560E0,-2.113927035E1,8.395523450E0,2.391632208E1
6.006229625E0,-1.067560777E1,-6.153595135E0,-1.127077246E1,1.669927083E1
6.016291625E0,-2.759858598E0,6.981403581E0,-1.556340994E1,1.727936759E1
6.026352625E0,2.852743081E0,9.322056870E0,-6.131179833E0,1.151652090E1
6.036413625E0,6.411446820E0,8.813974176E0,-5.488547444E-2,1.089934877E1
6.046474625E0,6.806411619E0,8.227372731E0,-1.710945586E0,1.081407583E1
6.056535625E0,5.322904011E0,4.793741519E0,-4.407417151E0,8.410623687E0
6.066597625E0,4.353889692E0,4.605530173E-1,-6.920017757E0,8.188718477E0
6.076658625E0,4.073983186E0,-2.229488364E0,-7.203574387E0,8.570848343E0
6.086719625E0,2.531758131E0,-3.162757192E0,-6.309605280E0,7.498263204E0
6.096780625E0,-9.097178511E-2,-4.021532493E0,-6.398348472E0,7.557768363E0
6.106841625E0,-1.288185170E0,-4.374769222E0,-5.844331221E0,7.413112315E0
6.116903625E0,-2.131993937E0,-3.869049972E0,-4.711707130E0,6.458725100E0
6.126964625E0,-2.796105781E0,-2.648827282E0,-4.484681089E0,5.911586756E0
6.137025625E0,-3.330264426E0,-1.304150700E0,-4.413640342E0,5.680817834E0
6.147086625E0,-3.485845678E0,-1.102743357E0,-3.775853541E0,5.255876041E0
6.157147625E0,-2.758560809E0,-1.115852814E0,-2.151273230E0,3.671888036E0
6.167208625E0,-2.056122221E0,-1.063952343E0,-5.297986686E-2,2.315694290E0
6.177270625E0,-1.057490659E0,-8.486952853E-1,1.070011375E0,1.727279515E0
6.187331625E0,-7.199289255E-2,3.010789812E-1,1.042469088E0,1.087461875E0
6.197392625E0,2.837305847E-1,1.593373282E0,-3.283480561E-1,1.651409672E0
6.207453625E0,2.288193825E-1,1.724573691E0,-1.601944131E0,2.364896980E0
6.217515625E0,-1.128505312E-2,1.777992100E0,-1.768873367E0,2.508046301E0
6.227576625E0,1.663266074E-2,1.831646150E0,-1.713635890E0,2.508336546E0
6.237637625E0,-8.729297284E-2,1.784544489E0,-1.586146708E0,2.389158948E0
6.247698625E0,-6.432823071E-1,2.092041959E0,-1.231545823E0,2.511405344E0
6.257759625E0,-1.208168655E0,2.218178680E0,-3.337496774E-1,2.547818087E0
6.267820625E0,-9.128073737E-1,1.580236927E0,1.097290244E0,2.129415865E0
6.277882625E0,-6.293251495E-1,1.071682363E0,1.733382522E0,2.132877914E0
6.287943625E0,-1.117169680E0,1.254190335E0,1.101099705E0,2.008353069E0
6.298004625E0,-1.582546285E0,1.103959578E0,1.196214023E0,2.270265950E0
6.308065625E0,-1.598526725E0,1.324632327E0,2.067783616E0,2.930130982E0
6.318127625E0,-1.375663317E0,1.696645635E0,2.539225903E0,3.349436394E0
6.328188625E0,-1.212573655E0,1.753233819E0,2.517380705E0,3.298692060E0
6.338249625E0,-7.773389353E-1,1.662742310E0,2.764275877E0,3.318160475E0
6.348310625E0,-3.851410750E-1,1.809344285E0,2.463380499E0,3.080633680E0
6.358371625E0,-6.298186728E-2,1.303785834E0,2.103212918E0,2.475344177E0
6.368432625E0,-2.278098973E-1,7.202769810E-1,2.079274418E0,2.212256401E0
6.378494292E0,-3.782340880E-1,7.100081009E-1,2.044738569E0,2.197300240E0
6.388555292E0,-7.608818007E-1,5.904033047E-1,1.968827677E0,2.191757194E0
6.398616292E0,-1.676636025E0,3.734710193E-1,1.742082155E0,2.446515726E0
6.408677292E0,-3.042752447E0,-6.726227582E-2,1.683288110E0,3.477977217E0
6.418739292E0,-4.403087580E0,-1.070227575E0,1.715285389E0,4.845077013E0
6.428800292E0,-5.582211653E0,-2.253881194E0,1.883423391E0,6.307800809E0
6.438861292E0,-6.110071970E0,-3.225719426E0,2.302035061E0,7.282692545E0
6.448922292E0,-5.853154085E0,-3.339407424E0,2.885837737E0,7.330696701E0
6.458983292E0,-5.155332751E0,-3.039806619E0,3.435716329E0,6.900871448E0
6.469044292E0,-4.198827673E0,-3.131426057E0,4.117039159E0,6.662281472E0
6.479106292E0,-3.390720250E0,-3.303014939E0,4.391334676E0,6.456834498E0
6.489167292E0,-3.369398963E0,-3.657050983E0,4.932511150E0,7.004037229E0
6.499228292E0,-3.446687459E0,-3.793187027E0,5.665235099E0,7.639555680E0
6.509289292E0,-4.458562161E0,-3.986322899E0,6.101478317E0,8.543862385E0
6.519350292E0,-5.896681927E0,-4.476561645E0,5.228900664E0,9.063766550E0
6.529412292E0,-7.213480155E0,-5.499967641E0,3.601514128E0,9.759858811E0
6.539473292E0,-7.842827670E0,-6.232289886E0,3.669789727E0,1.066858659E1
6.549534292E0,-7.508119013E0,-5.845981890E0,5.141740898E0,1.081595372E1
6.559595292E0,-7.222592456E0,-4.507994522E0,5.757984803E0,1.027824136E1
6.569656292E0,-6.703719894E0,-2.723844720E0,4.626507643E0,8.588583321E0
6.579718292E0,-4.895001846E0,-1.272509077E0,3.416139851E0,6.103305162E0
6.589779292E0,-2.324871070E0,-9.276233411E-1,2.505217327E0,3.541415594E0
6.599840292E0,2.149136987E-1,-1.555594422E0,-3.547863878E-2,1.570770714E0
6.609901292E0,2.052314953E0,-3.068926338E0,-3.005151926E0,4.760382719E0
6.619962292E0,2.726195593E0,-4.801733494E0,-4.033377197E0,6.837903083E0
6.630024292E0,2.247240804E0,-6.152180693E0,-3.794780393E0,7.569661600E0
6.640085292E0,2.905929939E0,-6.373926407E0,-2.422921860E0,7.412281497E0
6.650146292E0,4.223347387E0,-6.429808831E0,-3.756216983E-1,7.701960557E0
6.660207292E0,5.105685797E0,-6.676308147E0,1.374949372E0,8.516548814E0
6.670269292E0,5.026890473E0,-7.132155910E0,2.198445497E0,8.998357536E0
6.680330292E0,4.940190298E0,-7.214168957E0,1.967583974E0,8.962204004E0
6.690391292E0,4.268344342E0,-6.228646486E0,9.702606529E-1,7.612897360E0
6.700452292E0,2.543353452E0,-5.141088933E0,-1.183715307E0,5.856673470E0
6.710513292E0,6.024653066E-1,-3.756893944E0,-3.619212481E0,5.251277514E0
6.720575292E0,-2.205607751E-1,-1.968724181E0,-6.411697665E0,6.710766641E0
6.730636292E0,-9.369394905E-1,-6.608891505E-1,-6.325262370E0,6.428341475E0
6.740697292E0,-1.262383015E0,4.691460854E-1,-6.699972998E0,6.833984717E0
6.750758292E0,-1.907066608E0,1.103821583E0,-6.576307896E0,6.935643494E0
6.760819292E0,-2.372140838E0,1.179253004E0,-4.926710712E0,5.593761547E0
6.770881292E0,-2.180981325E0,1.467301465E0,-2.494443247E0,3.623796386E0
6.780942292E0,-1.960336058E-1,2.320718377E0,-2.750317989E0,3.603943951E0
6.791003292E0,1.034439838E0,2.698915116E0,-5.222481591E0,5.968963272E0
6.801064292E0,1.410064679E0,3.158750095E0,-6.184902297E0,7.086536600E0
6.811125292E0,1.791635993E0,3.980593212E0,-5.292373944E0,6.860342835E0
6.821187292E0,2.624303767E0,4.577177609E0,-5.255289148E0,7.446850956E0
6.831248292E0,3.436081780E0,4.976621375E0,-5.865185316E0,8.424595960E0
6.841309292E0,4.390968348E0,5.222393882E0,-6.102607999E0,9.154005969E0
6.851370292E0,5.373839691E0,5.633881744E0,-6.016941612E0,9.839835511E0
6.861431292E0,6.311270567E0,5.937339372E0,-5.340409990E0,1.017861061E1
6.871492292E0,6.506288658E0,6.408928424E0,-4.899952683E0,1.036415418E1
6.881554292E0,5.680348982E0,6.819405302E0,-4.873269207E0,1.012518671E1
6.891615292E0,3.978370393E0,7.154218624E0,-4.606850474E0,9.393260690E0
6.901676292E0,1.197443400E0,7.113883361E0,-4.032615890E0,8.264574889E0
6.911737292E0,-1.815474214E0,6.729679193E0,-3.274456553E0,7.701077482E0
6.921799292E0,-3.329644328E0,6.499652068E0,-2.150743911E0,7.612995976E0
6.931860292E0,-3.852374590E0,5.552083874E0,2.777193546E-1,6.763398064E0
6.941921292E0,-3.314335148E0,3.115612262E0,4.081914350E0,6.111782228E0
6.951982292E0,-2.892708215E0,-5.059472913E-1,9.501132528E0,9.944609735E0
6.962043292E0,-2.706985443E0,-4.999550647E0,1.350722486E1,1.465497869E1
6.972104292E0,-3.755582998E0,-9.314450812E0,1.292559764E1,1.636870404E1
6.982166292E0,-5.611775175E0,-1.174770646E1,6.851627553E0,1.471208441E1
6.992227292E0,-5.137470676E0,-1.177016210E1,1.892184128E0,1.298116642E1
7.002288292E0,-3.824410866E0,-8.661764721E0,1.521608650E0,9.589972859E0
7.012349292E0,-1.990135077E0,-3.283758888E0,1.449701931E0,4.104308194E0
7.022411292E0,7.582987200E-2,9.082076615E-1,1.396668270E0,1.667715078E0
7.032472292E0,2.248362153E0,4.922139359E0,1.416811928E0,5.593741527E0
7.042533292E0,3.648708175E0,7.649749101E0,1.287226811E0,8.572554200E0
7.052594292E0,5.934142115E0,7.299481003E0,-4.717796713E-2,9.407374304E0
7.062655292E0,9.402188283E0,4.426083217E0,-8.938954318E-1,1.043026396E1
7.072717292E0,9.639347842E0,2.026759551E0,-4.657331241E0,1.089566498E1
7.082778292E0,8.858084986E0,-1.006409894E0,-6.312280966E0,1.092352606E1
7.092839292E0,8.158746884E0,-7.686271394E0,1.673650583E0,1.133335894E1
7.102900292E0,2.625053673E0,-2.045719264E1,1.368035858E1,2.474954239E1
7.112961292E0,-8.240814895E0,-2.258534525E1,1.711948383E0,2.410268901E1
7.123023292E0,-7.247718526E0,-5.244989278E0,-1.500433660E1,1.746909996E1
7.133084292E0,-1.600544307E0,5.814137954E0,-9.969710848E0,1.165165553E1
7.143145292E0,3.160282358E0,6.769364830E0,-2.347004535E0,7.830716128E0
7.153206292E0,6.102189923E0,7.098042669E0,-2.234921890E0,9.623606779E0
7.163267292E0,6.630618589E0,6.195958212E0,-4.049422249E0,9.937445426E0
7.173329292E0,6.498799544E0,3.088333247E0,-5.067746138E0,8.800809547E0
7.183390292E0,5.373887054E0,5.221505105E-2,-6.302001561E0,8.282307176E0
7.193451292E0,3.472182489E0,-1.130080844E0,-6.579761846E0,7.525051488E0
7.203512292E0,7.092783684E-1,-1.763420253E0,-6.767720593E0,7.029563914E0
7.213573292E0,-8.636574331E-1,-2.775667423E0,-6.161683588E0,6.812971337E0
7.223635292E0,-1.649217700E0,-2.439201677E0,-5.403051796E0,6.153258694E0
7.233696292E0,-2.834710560E0,-1.799323327E0,-6.522540994E0,7.335985919E0
7.243757292E0,-2.841643311E0,-8.812578446E-1,-7.862825148E0,8.406876435E0
7.253818292E0,-2.761597560E0,-8.658779132E-1,-7.343113511E0,7.892875374E0
7.263879292E0,-2.721421926E0,-1.825698947E0,-4.026660501E0,5.191657610E0
7.273941292E0,-3.148719489E0,-2.449203925E0,-1.064552268E0,4.128717212E0
7.284002292E0,-3.072050505E0,-1.559218526E0,1.030189351E0,3.595823524E0
7.294063292E0,-2.469533816E0,-2.336950833E-1,2.486830757E0,3.512483150E0
7.304124292E0,-1.940201025E0,7.785596877E-1,2.911533911E0,3.584349999E0
7.314185292E0,-1.781309517E0,1.694344171E0,1.218691889E0,2.743916123E0
7.324247292E0,-2.011141784E0,1.855461275E0,-3.451710802E-1,2.758001249E0
7.334308292E0,-1.466439001E0,2.002072606E0,-6.339217919E-1,2.561365827E0
7.344369292E0,-1.071823500E0,2.359377244E0,-8.400198445E-1,2.724169586E0
7.354430292E0,-1.425145379E0,2.799595399E0,-1.490460532E0,3.477103155E0
7.364491292E0,-6.225072230E-1,2.334179837E0,-1.042936281E0,2.631278556E0
7.374553875E0,-1.958216259E-1,1.697520379E0,6.172472870E-1,1.816842249E0
7.384614875E0,-2.276006766E-1,1.057276577E0,2.033097932E0,2.302851066E0
7.394675875E0,-4.196003979E-1,5.402885735E-1,2.782305182E0,2.865169866E0
7.404736875E0,-5.687562545E-1,1.673209995E-1,3.369729331E0,3.421484437E0
7.414797875E0,-1.126055767E0,3.475497276E-1,3.247915456E0,3.455104516E0
7.424859875E0,-1.647875618E0,9.266860324E-1,2.407519709E0,3.061109636E0
7.434920875E0,-2.356735764E0,1.522628404E0,1.791081676E0,3.328749659E0
7.444981875E0,-2.211200613E0,2.219162766E0,1.852090355E0,3.639276057E0
7.455042875E0,-1.052125765E0,1.999944220E0,1.424309227E0,2.671217378E0
7.465103875E0,-3.258571422E-1,2.041815546E0,7.827305067E-1,2.210850662E0
7.475165875E0,5.002260100E-1,2.107062871E0,3.680039457E-1,2.196671780E0
7.485226875E0,9.905002052E-1,1.291583279E0,7.692434652E-1,1.800281515E0
7.495287875E0,5.874079223E-1,6.812713748E-1,1.505923640E0,1.754133622E0
7.505348875E0,-3.900329652E-1,3.820500541E-1,1.947401140E0,2.022488358E0
7.515409875E0,-1.668880132E0,1.003113234E-1,2.520368632E0,3.024480335E0
7.525471875E0,-3.178608994E0,-4.828426033E-1,2.351813432E0,3.983430498E0
7.535532875E0,-4.509493749E0,-1.558126851E0,1.668269098E0,5.054346143E0
7.545593875E0,-5.228844531E0,-2.688611153E0,1.459463565E0,6.058009488E0
7.555654875E0,-4.861835269E0,-3.031975443E0,2.065685635E0,6.090761399E0
7.565715875E0,-4.017060834E0,-2.601369526E0,3.263270537E0,5.792480967E0
7.575777875E0,-2.970843388E0,-2.169822791E0,4.394067957E0,5.730783070E0
7.585838875E0,-2.557435594E0,-2.095122272E0,4.435256914E0,5.531863885E0
7.595899875E0,-2.737858742E0,-2.383868891E0,3.969068935E0,5.378866943E0
7.605960875E0,-3.633837537E0,-2.892030523E0,3.877213855E0,6.049909343E0
7.616021875E0,-4.669835511E0,-3.341508914E0,3.989566934E0,6.992116264E0
7.626083875E0,-5.772946658E0,-3.857206437E0,3.601390167E0,7.821442690E0
7.636144875E0,-6.741316321E0,-4.579487259E0,3.166830655E0,8.743332643E0
7.646205875E0,-7.033836733E0,-5.278163456E0,3.314428119E0,9.397834985E0
7.656266875E0,-6.783135608E0,-5.342458854E0,4.347943951E0,9.667337373E0
7.666327875E0,-6.443356830E0,-4.703231299E0,5.606833109E0,9.750579952E0
7.676389875E0,-6.814455049E0,-3.975469297E0,5.214088497E0,9.456631145E0
7.686450875E0,-5.842412750E0,-3.131828345E0,3.921774316E0,7.702106809E0
7.696511875E0,-3.267444279E0,-2.089165129E0,4.274476025E0,5.771650400E0
7.706572875E0,-3.082022785E-1,-1.579024215E0,4.844576043E0,5.104725571E0
7.716634875E0,1.284322353E0,-2.827317048E0,2.455104350E0,3.958628925E0
7.726695875E0,1.239825188E0,-4.433872878E0,-1.907747662E0,4.983562615E0
7.736756875E0,1.629895429E0,-4.796585605E0,-4.336721975E0,6.668654292E0
7.746817875E0,1.766161282E0,-5.670147344E0,-4.486541088E0,7.443046924E0
7.756878875E0,1.307662684E0,-6.217377148E0,-3.442786197E0,7.226239485E0
7.766940875E0,2.083032277E0,-6.164057558E0,-2.084442918E0,6.832242042E0
7.777001875E0,3.799412850E0,-6.568116531E0,-9.097028676E-1,7.642202044E0
7.787062875E0,4.630860603E0,-6.948403650E0,1.208806513E0,8.437203114E0
7.797123875E0,4.414568295E0,-6.443048682E0,2.994183134E0,8.364593367E0
7.807184875E0,3.384930922E0,-5.113531591E0,2.102504967E0,6.482784109E0
7.817246875E0,2.300076829E0,-3.777395452E0,-8.153088534E-1,4.497087762E0
7.827307875E0,7.836442072E-1,-2.931826088E0,-3.860038828E0,4.910152972E0
7.837368875E0,1.073720263E0,-1.740168216E0,-6.330364065E0,6.652410828E0
7.847429875E0,8.564939361E-1,1.717145973E-1,-8.839472714E0,8.882530362E0
7.857490875E0,-5.342025722E-1,5.643217993E-1,-1.053587101E1,1.056448813E1
7.867552875E0,-3.079503074E0,4.364034319E-1,-7.088385408E0,7.740736065E0
7.877613875E0,-4.015037405E0,8.922266364E-1,-9.707354468E-1,4.225981667E0
7.887674875E0,-2.763702850E0,8.039740258E-1,2.756224554E0,3.985122516E0
7.897735875E0,-3.617520297E-1,8.847340143E-1,-4.686461484E-1,1.064541225E0
7.907796875E0,1.628670292E0,9.293617183E-1,-4.344072509E0,4.731516257E0
7.917858875E0,2.842673006E0,1.758112736E0,-5.390892511E0,6.342986069E0
7.927919875E0,3.106152636E0,2.470328161E0,-5.039912807E0,6.414937764E0
7.937980875E0,3.189896459E0,3.155493196E0,-4.480622244E0,6.341021402E0
7.948041875E0,4.010521893E0,4.646448988E0,-4.167399473E0,7.418961681E0
7.958102875E0,4.649871948E0,5.794817584E0,-4.011974342E0,8.443764449E0
7.968164875E0,5.005100824E0,6.060697496E0,-3.963780421E0,8.803104203E0
7.978225875E0,4.585255245E0,5.530518758E0,-3.718817461E0,8.089549227E0
7.988286875E0,4.518781466E0,5.455525294E0,-3.109822934E0,7.736481167E0
7.998347875E0,4.289220072E0,5.721490576E0,-2.728477469E0,7.653590826E0
8.008408875E0,4.237209381E0,5.887163830E0,-1.836641134E0,7.482372081E0
8.018470875E0,3.896061185E0,6.001864566E0,-1.932269715E0,7.411837645E0
8.028531875E0,2.844838522E0,5.597104511E0,-2.478308733E0,6.750014763E0
8.038592875E0,1.396916192E0,5.350385925E0,-2.532237310E0,6.081959403E0
8.048653875E0,-3.160966775E-1,5.289672530E0,-2.067112355E0,5.688014247E0
8.058714875E0,-1.587420963E0,4.683538461E0,-9.732134968E-1,5.040097454E0
8.068776875E0,-2.772771297E0,3.654303961E0,7.607470223E-1,4.649831624E0
8.078837875E0,-3.769380966E0,2.136939805E0,2.169081949E0,4.845581605E0
8.088898875E0,-4.763498843E0,4.418261397E-1,4.122242011E0,6.314983038E0
8.098959875E0,-4.654177253E0,-1.682791243E0,4.523622376E0,6.704946805E0
8.109020875E0,-4.507298704E0,-3.429672647E0,3.413565322E0,6.612928570E0
8.119082875E0,-5.288912977E0,-4.560699570E0,2.820696246E0,7.531859555E0
8.129143875E0,-5.217409131E0,-5.184451300E0,3.605036491E0,8.191225880E0
8.139204875E0,-3.739073970E0,-4.749042479E0,4.218969869E0,7.371145459E0
8.149265875E0,-1.699650812E0,-3.220463364E0,4.812693515E0,6.035082106E0
8.159326875E0,-5.553287816E-1,-1.290846530E0,4.971088740E0,5.165887927E0
8.169388875E0,2.922136521E-1,1.190019482E0,4.133347628E0,4.311159682E0
8.179449875E0,4.773026589E-1,3.358912566E0,3.113095036E0,4.604505637E0
8.189510875E0,5.733964587E-1,4.314278022E0,1.712200983E0,4.676901812E0
8.199571875E0,2.614678666E0,4.718788401E0,-7.938864094E-1,5.452867514E0
8.209633875E0,5.886069231E0,4.846648296E0,-4.610504399E0,8.910250362E0
8.219694875E0,8.663762714E0,3.258896527E0,-6.866888786E0,1.152542201E1
8.229755875E0,9.952971439E0,-1.172171441E0,-4.765212370E0,1.109697595E1
8.239816875E0,9.774467640E0,-9.799193176E0,4.193445603E0,1.446199815E1
8.249877875E0,3.838996746E0,-2.568743115E1,1.785842571E1,3.151992043E1
8.259939875E0,-6.844189310E0,-3.184037900E1,5.646439809E0,3.305351637E1
8.270000875E0,-7.541709512E0,-1.086757537E1,-1.309312739E1,1.861213479E1
8.280061875E0,2.724562027E-1,7.353008169E0,-8.153765641E0,1.098293475E1
8.290122875E0,6.130690421E0,1.090319778E1,-1.251038101E0,1.257100565E1
8.300183875E0,8.372890633E0,1.268260139E1,-2.759901283E0,1.544573504E1
8.310245875E0,7.533212923E0,1.145461594E1,-4.979116967E0,1.458592229E1
8.320306875E0,6.146111868E0,6.219586810E0,-5.857167029E0,1.052446468E1
8.330367875E0,5.665016413E0,5.116898417E-1,-7.136613243E0,9.126088210E0
8.340428875E0,5.351079989E0,-2.313492388E0,-6.760622658E0,8.927055663E0
8.350489875E0,4.562468938E0,-2.999464924E0,-6.189265489E0,8.253479262E0
8.360551875E0,2.710311924E0,-3.677661833E0,-6.146915275E0,7.658691448E0
8.370612875E0,2.446842673E-1,-4.018280271E0,-5.089298390E0,6.489021870E0
8.380674000E0,-1.108327959E0,-4.158506443E0,-4.829892223E0,6.469113199E0
8.390735000E0,-1.595969738E0,-4.125785424E0,-5.294336854E0,6.899219340E0
8.400796000E0,-2.206717553E0,-3.229999003E0,-5.647239123E0,6.869774787E0
8.410858000E0,-3.303598491E0,-1.971577038E0,-5.598602568E0,6.793028023E0
8.420919000E0,-4.178645423E0,-1.436332857E0,-5.723140075E0,7.230384635E0
8.430980000E0,-3.922144737E0,-1.389455729E0,-4.605186941E0,6.206573396E0
8.441041000E0,-3.509398263E0,-4.739951813E-1,-3.325969353E0,4.858252745E0
8.451102000E0,-3.046898415E0,5.102069879E-1,-2.205607166E0,3.795866712E0
8.461164000E0,-2.594653706E0,1.061218185E0,-9.541615871E-1,2.961222083E0
8.471225000E0,-1.434658214E0,1.887854850E0,8.318973311E-1,2.512825759E0
8.481286000E0,4.948858210E-1,2.347872262E0,1.812758474E0,3.007242827E0
8.491347000E0,1.784927482E0,2.731056676E0,1.932480215E0,3.791980546E0
8.501408000E0,1.885506462E0,2.915735135E0,2.469942829E0,4.261134071E0
8.511470000E0,1.316940022E0,3.032477719E0,3.244736910E0,4.632339555E0
8.521531000E0,8.152142747E-1,2.294325800E0,3.531948634E0,4.289891181E0
8.531592000E0,-1.016324652E-2,1.788592517E0,2.229142209E0,2.858013553E0
8.541653000E0,-1.460762926E-1,1.661925454E0,1.221952296E0,2.067970481E0
8.551715000E0,-1.322432312E0,1.019822822E0,5.820037794E-1,1.768500554E0
8.561776000E0,-2.432886392E0,5.660227543E-1,-8.717379928E-2,2.499383369E0
8.571837000E0,-2.804149795E0,5.407978660E-1,3.715157834E-1,2.879885828E0
8.581898000E0,-3.250837602E0,4.284015173E-1,2.041229070E0,3.862394218E0
8.591959000E0,-2.555261014E0,1.020340301E0,3.402522855E0,4.375798779E0
8.602021000E0,-1.327164171E0,1.515643905E0,3.303880327E0,3.869646805E0
8.612082000E0,-6.162781110E-1,1.980971759E0,2.417516255E0,3.185660475E0
8.622143000E0,-1.540546174E-1,1.613288898E0,1.032100367E0,1.921370621E0
8.632204000E0,-3.106953486E-1,7.409667689E-1,5.307191665E-1,9.629258465E-1
8.642265000E0,-1.160964960E0,-5.139117837E-3,1.437974170E0,1.848143870E0
8.652327000E0,-2.140926729E0,-3.774243218E-1,2.696239723E0,3.463484520E0
8.662388000E0,-2.964720184E0,-9.399410856E-1,3.872371191E0,4.966720614E0
8.672449000E0,-3.666895355E0,-1.755544639E0,4.524093661E0,6.082391140E0
8.682510000E0,-3.894302343E0,-2.262122844E0,4.183675490E0,6.147026200E0
8.692571000E0,-4.116553255E0,-2.632557405E0,3.683043026E0,6.118919441E0
8.702633000E0,-4.329627548E0,-2.723251228E0,3.065474727E0,5.963128982E0
8.712694000E0,-3.907253925E0,-2.534104326E0,2.917492808E0,5.495460150E0
8.722755000E0,-3.768094870E0,-2.401377794E0,3.396444089E0,5.612573983E0
8.732816000E0,-3.854474618E0,-2.389817263E0,4.565779631E0,6.435413333E0
8.742877000E0,-4.002408004E0,-2.804517585E0,6.208195850E0,7.901030593E0
8.752939000E0,-4.211581035E0,-3.460444788E0,6.949324586E0,8.832055545E0
8.763000000E0,-5.092562891E0,-4.285026156E0,6.311046619E0,9.171965732E0
8.773061000E0,-5.972734323E0,-5.096938947E0,5.165304008E0,9.398548154E0
8.783122000E0,-6.328421620E0,-5.407479308E0,4.756172867E0,9.587018984E0
8.793183000E0,-6.429635169E0,-5.184765295E0,6.089820138E0,1.026196418E1
8.803245000E0,-6.792260773E0,-3.922650229E0,7.318140053E0,1.072740253E1
8.813306000E0,-7.800028975E0,-2.791516886E0,5.788018441E0,1.010614546E1
8.823367000E0,-7.114312547E0,-2.041974590E0,3.945000626E0,8.387260171E0
8.833428000E0,-3.332648043E0,-1.155867065E0,3.951080561E0,5.296565798E0
8.843489000E0,-5.066109868E-1,-2.102385684E0,2.730015872E0,3.482767135E0
8.853551000E0,1.677540151E0,-4.722984363E0,-2.813695375E0,5.747834715E0
8.863612000E0,2.546448968E0,-6.751953576E0,-6.088632569E0,9.441648479E0
8.873673000E0,2.130737078E0,-6.706427155E0,-5.219405955E0,8.761187374E0
8.883734000E0,1.546368539E0,-6.083018072E0,-3.711714263E0,7.291857602E0
8.893796000E0,3.557808238E0,-6.451688527E0,-2.935972348E0,7.931091851E0
8.903857000E0,5.396629799E0,-7.437789288E0,-2.000635945E0,9.404619443E0
8.913918000E0,7.560229983E0,-9.167075250E0,1.397135170E-1,1.188325990E1
8.923979000E0,7.144342677E0,-9.876871097E0,2.894494539E0,1.252885923E1
8.934040000E0,3.474951146E0,-7.756889387E0,3.673617606E0,9.259594200E0
8.944102000E0,1.272488758E0,-5.933707082E0,2.579434866E-1,6.074096000E0
8.954163000E0,8.645292529E-1,-4.756780100E0,-3.467959045E0,5.949882998E0
8.964224000E0,-1.535624134E0,-2.984853902E0,-7.060653234E0,7.817948476E0
8.974285000E0,-2.304450546E0,-1.417177379E0,-8.533371559E0,8.951944717E0
8.984346000E0,-1.223722687E0,-1.201871789E-1,-6.588565414E0,6.702323208E0
8.994408000E0,-2.505901743E-1,5.188561893E-1,-4.398569144E0,4.436148971E0
9.004469000E0,-2.265899853E0,4.536913097E-1,-3.212003612E0,3.956906008E0
9.014530000E0,-1.709163647E0,9.308077347E-1,-2.361013002E0,3.059742768E0
9.024591000E0,2.452560519E-1,1.761529849E0,-3.097047060E0,3.571391666E0
9.034652000E0,1.945592888E0,2.915528728E0,-4.506242697E0,5.708928331E0
9.044714000E0,2.295948695E0,3.473272410E0,-5.435538926E0,6.846903319E0
9.054775000E0,2.302270266E0,4.677035773E0,-6.000060700E0,7.948323119E0
9.064836000E0,2.930874161E0,5.757699459E0,-5.514182807E0,8.493958938E0
9.074897000E0,3.134391472E0,6.627593824E0,-5.510931755E0,9.171683521E0
9.084958000E0,3.581452624E0,7.142338836E0,-5.850424604E0,9.902892254E0
9.095020000E0,4.119889969E0,7.459890593E0,-5.809565431E0,1.031380199E1
9.105081000E0,4.442240536E0,7.575502326E0,-5.651116412E0,1.044302893E1
9.115142000E0,4.569559271E0,7.613559514E0,-5.266749691E0,1.032404052E1
9.125203000E0,4.429232528E0,7.971715506E0,-5.146539123E0,1.047154305E1
9.135264000E0,3.874016597E0,7.965610428E0,-5.073249537E0,1.020768411E1
9.145326000E0,3.166735930E0,7.554822478E0,-4.945106052E0,9.568575286E0
9.155387000E0,2.142837306E0,6.921247426E0,-4.201920850E0,8.375652600E0
9.165448000E0,1.049583030E0,6.187980271E0,-2.886487947E0,6.908294800E0
9.175509000E0,7.233176793E-1,5.472221434E0,-1.247250860E0,5.658977875E0
9.185570000E0,7.460417135E-1,4.173318610E0,7.971889168E-1,4.313777535E0
9.195632000E0,1.015295031E0,1.372666034E0,4.676567996E0,4.978486141E0
9.205693000E0,-2.314115263E-1,-3.684690186E0,1.046804565E1,1.110002130E1
9.215754000E0,-4.298805120E0,-9.564522777E0,1.514766823E1,1.842312879E1
9.225815000E0,-8.123229142E0,-1.378868410E1,1.374970890E1,2.109903210E1
9.235877000E0,-8.669140983E0,-1.483750151E1,7.393823488E0,1.870759424E1
9.245938000E0,-6.832127674E0,-1.122760247E1,3.266230105E0,1.354272073E1
9.255999000E0,-3.248743130E0,-5.341358993E0,2.291265952E0,6.658404274E0
9.266060000E0,4.156991722E-1,-8.671450049E-1,2.158912472E0,2.363397834E0
9.276121000E0,2.530756503E0,2.427416030E0,1.600464200E0,3.854680624E0
9.286183000E0,3.370849949E0,5.072331524E0,4.114580405E-1,6.104135827E0
9.296244000E0,3.234422129E0,5.284119430E0,1.114573444E0,6.294893058E0
9.306305000E0,3.661035275E0,2.660826938E0,1.011910955E0,4.637579440E0
9.316366000E0,5.409594246E0,-1.082350023E0,3.686792260E-1,5.529115286E0
9.326427000E0,6.131527158E0,-4.984052601E0,-1.869334379E0,8.119779347E0
9.336489000E0,6.648411666E0,-9.702442807E0,-2.980419374E-1,1.176552604E1
9.346550000E0,4.233896933E0,-1.489646015E1,4.542205412E0,1.613883634E1
9.356611000E0,-5.520164070E-1,-1.304451832E1,3.518224635E0,1.352191128E1
9.366672000E0,-1.728484455E0,-8.062368983E-1,-7.666363964E0,7.900051448E0
9.376732750E0,2.163604570E0,7.198841066E0,-1.013236168E1,1.261622965E1
9.386794750E0,6.225771995E0,9.136099625E0,-3.515578769E0,1.160120026E1
9.396855750E0,7.368180524E0,8.399921726E0,-2.358995713E0,1.141987872E1
9.406916750E0,6.940252047E0,5.722339591E0,-5.780965530E0,1.069260639E1
9.416977750E0,5.241263432E0,2.915235198E0,-7.643727053E0,9.715760490E0
9.427038750E0,4.279899902E0,6.187687325E-1,-6.955163031E0,8.189915183E0
9.437100750E0,3.804104656E0,-8.394221860E-1,-5.905466200E0,7.074628815E0
9.447161750E0,1.898989410E0,-2.235694014E0,-5.892190681E0,6.581975352E0
9.457222750E0,-5.374841758E-1,-3.248965032E0,-6.081104863E0,6.915525965E0
9.467283750E0,-1.571843249E0,-3.929407856E0,-5.747952150E0,7.137919250E0
9.477344750E0,-2.759130620E0,-3.734491507E0,-6.237226106E0,7.775745501E0
9.487406750E0,-3.570882027E0,-2.990573063E0,-6.172226118E0,7.732470559E0
9.497467750E0,-4.286235945E0,-2.372990731E0,-5.454384502E0,7.331658331E0
9.507528750E0,-5.118589432E0,-1.979854356E0,-4.399891199E0,7.034118539E0
9.517589750E0,-5.117960272E0,-1.455901734E0,-2.681105374E0,5.958312952E0
9.527650750E0,-3.904662439E0,-6.942831838E-1,-3.776295590E-1,3.983845126E0
9.537712750E0,-2.987281373E0,-5.442412913E-2,1.183242998E0,3.213545703E0
9.547773750E0,-1.917651237E0,6.464015043E-1,1.094639701E0,2.300751453E0
9.557834750E0,-1.128113402E0,1.788436981E0,-1.349595845E-2,2.114551684E0
9.567895750E0,-8.040447772E-1,2.695669912E0,-1.749713210E0,3.312796492E0
9.577957750E0,-4.785136538E-2,2.739739206E0,-2.529235350E0,3.729006855E0
9.588018750E0,4.094819009E-1,2.718384590E0,-1.898821887E0,3.341079880E0
9.598079750E0,3.599772170E-1,2.877691981E0,-1.844680179E0,3.437083021E0
9.608140750E0,1.002777750E-1,2.314778776E0,-1.203396158E0,2.610827211E0
9.618201750E0,2.628129199E-1,1.163114104E0,1.731388621E0,2.102287233E0
9.628263750E0,-1.865597277E-1,8.027268147E-1,2.899459995E0,3.014306410E0
9.638324750E0,-9.080495674E-1,1.275207567E-1,2.781926283E0,2.929151652E0
9.648385750E0,-1.957412304E0,8.950274527E-2,2.678714740E0,3.318883295E0
9.658446750E0,-2.006413579E0,1.859063745E-1,2.266433412E0,3.032651817E0
9.668507750E0,-1.577316097E0,6.047745913E-1,2.283270908E0,2.840247245E0
9.678569750E0,-9.762821887E-1,1.516167231E0,2.750561818E0,3.288993813E0
9.688630750E0,-1.008926390E0,2.056939954E0,2.719571575E0,3.555981438E0
9.698691750E0,-6.240856057E-1,2.339345267E0,2.246845239E0,3.303079268E0
9.708752750E0,2.363413869E-1,1.950538756E0,1.727139888E0,2.616002844E0
9.718813750E0,7.743160710E-1,1.390184292E0,1.568806790E0,2.234576579E0
9.728875750E0,7.744539922E-1,9.994967312E-1,1.746915464E0,2.156498630E0
9.738936750E0,2.354567762E-1,6.517318261E-1,1.748504737E0,1.880814473E0
9.748997750E0,-1.270139785E0,5.421222603E-1,1.699529628E0,2.189875014E0
9.759058750E0,-3.561130626E0,1.346643001E-1,1.412440549E0,3.833376333E0
9.769119750E0,-5.244536119E0,-1.001804627E0,6.700955915E-1,5.381245182E0
9.779181750E0,-6.461414201E0,-2.006606537E0,7.504318030E-1,6.807311596E0
9.789242750E0,-6.483909025E0,-2.906320533E0,1.917193254E0,7.359579149E0
9.799303750E0,-5.480915658E0,-3.300387200E0,3.376863811E0,7.234376360E0
9.809364750E0,-4.028869579E0,-3.315037399E0,4.488999842E0,6.882759812E0
9.819425750E0,-2.917707401E0,-3.077577294E0,4.591399207E0,6.250235607E0
9.829487750E0,-2.907368354E0,-3.286188991E0,4.638786504E0,6.385152235E0
9.839548750E0,-3.301255804E0,-3.854047771E0,5.557668550E0,7.525932090E0
9.849609750E0,-4.158108248E0,-4.292196012E0,6.349199116E0,8.719239658E0
9.859670750E0,-4.686288407E0,-3.818200246E0,6.132237010E0,8.610707456E0
9.869732750E0,-4.494509674E0,-3.071280427E0,6.630087077E0,8.578545058E0
9.879793750E0,-4.909208241E0,-2.962293590E0,7.058501458E0,9.093841416E0
9.889854750E0,-6.006095027E0,-3.570322157E0,6.100953237E0,9.275883148E0
9.899915750E0,-6.561962337E0,-3.486615756E0,5.836468470E0,9.448820209E0
9.909976750E0,-6.391343508E0,-2.576024185E0,6.131320167E0,9.223787694E0
9.920038750E0,-6.946947693E0,-1.650035141E0,4.105022546E0,8.236134307E0
9.930099750E0,-7.608474775E0,-1.388281024E0,5.840269891E-1,7.756113726E0
9.940160750E0,-6.919943497E0,-1.187169549E0,3.722654696E-1,7.030901160E0
9.950221750E0,-4.172807855E0,-1.273414811E0,1.360330967E-1,4.364907294E0
9.960282750E0,-4.902739759E-1,-2.274551686E0,-2.885245414E0,3.706561080E0
9.970344750E0,1.096189286E0,-4.446149107E0,-5.025135723E0,6.798666183E0
9.980405750E0,2.206882444E0,-5.724766186E0,-4.666088031E0,7.708155131E0
9.990466750E0,2.418885527E0,-5.399082121E0,-2.830153533E0,6.558266841E0
1.000052775E1,3.929129821E0,-6.131154690E0,-5.352188914E-1,7.301751725E0
1.001058875E1,6.782763140E0,-8.867255759E0,9.630907971E-1,1.120542924E1
1.002065075E1,7.386679360E0,-1.125750162E1,1.055860528E0,1.350589561E1
1.003071175E1,5.343683261E0,-1.128470638E1,1.566393644E0,1.258384432E1
1.004077275E1,2.508808687E0,-9.191430658E0,2.801797460E0,9.931091962E0
1.005083375E1,2.397366092E-1,-6.579893993E0,3.958611774E-1,6.596149231E0
1.006089475E1,-4.034651159E-1,-4.484593381E0,-4.381195897E0,6.282454885E0
1.007095675E1,-1.818203109E0,-2.303244558E0,-7.024717416E0,7.612979233E0
1.008101775E1,-2.201004238E0,-7.034650666E-1,-6.915471547E0,7.291298202E0
1.009107875E1,-2.598806984E0,7.209616899E-4,-8.942161515E0,9.312145340E0
1.010113975E1,-2.464638527E0,5.627126455E-2,-6.218541913E0,6.689385103E0
1.011120075E1,-6.188065933E-1,1.921430147E-1,-1.543298312E0,1.673801128E0
1.012126275E1,-7.075320974E-1,3.587301886E-1,-1.114687172E0,1.368143453E0
1.013132375E1,5.838770811E-1,8.001119399E-1,-2.499049684E0,2.688185426E0
1.014138475E1,2.532343730E0,1.526129133E0,-4.576923839E0,5.448859213E0
1.015144575E1,3.086774379E0,2.136497755E0,-6.175583589E0,7.227076268E0
1.016150775E1,3.211132084E0,3.342780098E0,-6.177303840E0,7.722993641E0
1.017156875E1,3.365687735E0,4.612663191E0,-6.344482752E0,8.535629856E0
1.018162975E1,3.667233909E0,5.646594175E0,-6.460721891E0,9.331321325E0
1.019169075E1,4.204213543E0,6.363535904E0,-6.533519141E0,1.004275227E1
1.020175175E1,4.541125723E0,7.116753759E0,-6.209110939E0,1.047965007E1
1.021181375E1,5.026488769E0,7.991442257E0,-5.740618572E0,1.104913754E1
1.022187475E1,5.288867953E0,8.281950642E0,-5.513364197E0,1.126765350E1
1.023193575E1,5.416482850E0,8.281014503E0,-4.892176179E0,1.103842722E1
1.024199675E1,5.005823539E0,8.198766983E0,-4.260325763E0,1.050849299E1
1.025205775E1,4.139883061E0,7.866558595E0,-3.492848303E0,9.550987653E0
1.026211975E1,2.995548459E0,7.745103740E0,-2.350439774E0,8.630440872E0
1.027218075E1,1.738947902E0,7.073676152E0,-8.148662192E-1,7.329723123E0
1.028224175E1,6.780461238E-1,5.441806557E0,8.862247619E-1,5.555033706E0
1.029230275E1,-6.733544641E-1,3.261659921E0,2.999065560E0,4.481765936E0
1.030236375E1,-1.828335603E0,4.500040555E-1,5.903150702E0,6.196168408E0
1.031242575E1,-2.521004809E0,-3.043482764E0,8.416464084E0,9.298124556E0
1.032248675E1,-3.015782164E0,-6.622847639E0,9.108817686E0,1.165879979E1
1.033254775E1,-3.453139277E0,-9.252224743E0,8.918772653E0,1.330685309E1
1.034260875E1,-4.332599688E0,-1.032791245E1,7.396817847E0,1.342200096E1
1.035266975E1,-6.082740330E0,-9.381892013E0,5.028804266E0,1.226003671E1
1.036273175E1,-7.274444395E0,-6.203979422E0,2.920280761E0,9.996746553E0
1.037279275E1,-5.514205027E0,-2.154340534E0,2.424430441E0,6.397304368E0
1.038285404E1,-3.449522482E0,1.371918760E0,2.087906224E0,4.259192275E0
1.039291504E1,-1.779164905E0,3.802683490E0,2.379213923E0,4.825607565E0
1.040297704E1,9.863820112E-1,3.858371202E0,1.188941841E0,4.156147315E0
1.041303804E1,6.171505741E0,1.256605235E0,-2.700254713E0,6.852584574E0
1.042309904E1,1.060099262E1,-3.621635567E0,-5.334404315E0,1.240778619E1
1.043316004E1,1.159906088E1,-1.130715384E1,-1.179615824E0,1.624134954E1
1.044322104E1,9.033321362E0,-2.069790380E1,8.632839714E0,2.417705603E1
1.045328304E1,2.985473122E0,-2.220771569E1,1.129966122E1,2.509537865E1
1.046334404E1,-6.196757088E-1,-3.735939862E0,-6.682882172E0,7.681286270E0
1.047340504E1,2.483386747E0,8.902651294E0,-1.153853986E1,1.478385308E1
1.048346604E1,5.975757333E0,1.194751049E1,-3.726182613E0,1.386856588E1
1.049352704E1,7.740462220E0,1.225562134E1,-3.495938557E0,1.491095557E1
1.050358904E1,7.662090234E0,9.159072166E0,-7.525669430E0,1.411495413E1
1.051365004E1,5.802888495E0,4.473689493E0,-7.755774908E0,1.066955749E1
1.052371104E1,4.968415977E0,1.422460923E0,-7.128232428E0,8.804558476E0
1.053377204E1,4.347684042E0,6.244107109E-1,-7.026124256E0,8.286052578E0
1.054383304E1,3.115638574E0,-1.030493406E0,-6.780228372E0,7.532636800E0
1.055389504E1,9.888264397E-1,-4.144763732E0,-7.525693404E0,8.648289156E0
1.056395604E1,-1.090676312E0,-5.692395415E0,-8.729366135E0,1.047830012E1
1.057401704E1,-2.757641919E0,-6.259350801E0,-9.426816756E0,1.164684230E1
1.058407804E1,-4.019414631E0,-6.298883241E0,-7.900021040E0,1.087391174E1
1.059413904E1,-5.644722481E0,-5.324618999E0,-6.173518937E0,9.915986862E0
1.060420104E1,-7.182520317E0,-3.931743819E0,-4.617091872E0,9.400252386E0
1.061426204E1,-7.839489495E0,-2.410189548E0,-6.478837734E-1,8.227172210E0
1.062432304E1,-7.333152779E0,-6.278763556E-1,3.109991333E0,7.990081632E0
1.063438404E1,-5.240655906E0,6.267905277E-1,3.615205384E0,6.397425315E0
1.064444504E1,-2.635934756E0,2.148602661E0,2.216103942E0,4.059034628E0
1.065450704E1,-5.987710357E-1,3.057457024E0,3.284859042E-1,3.132805963E0
1.066456804E1,1.279664315E0,3.299634079E0,-2.060218488E0,4.095073385E0
1.067462904E1,2.932141253E0,3.330031414E0,-2.695650031E0,5.191636605E0
1.068469004E1,3.436285847E0,3.143249127E0,-1.334253920E0,4.844410080E0
1.069475204E1,3.337747107E0,2.903955919E0,6.772186697E-2,4.424714904E0
1.070481304E1,2.626450573E0,2.170982294E0,1.716481145E0,3.815457280E0
1.071487404E1,1.828400361E0,1.334138145E0,2.236909651E0,3.182253487E0
1.072493504E1,3.931616276E-1,5.994875389E-1,2.269219025E0,2.379772334E0
1.073499604E1,-1.556062930E0,4.884647012E-2,8.264477992E-1,1.762592915E0
1.074505804E1,-2.915198653E0,9.061488569E-2,-1.429375621E-1,2.920107086E0
1.075511904E1,-3.011746708E0,8.044932586E-1,-2.598958353E-1,3.128158162E0
1.076518004E1,-2.945700653E0,1.465052041E0,5.178001821E-1,3.330412415E0
1.077524104E1,-2.064877842E0,1.820415988E0,2.020618805E0,3.414752586E0
1.078530204E1,-1.344946669E-1,1.683140906E0,2.842163129E0,3.305895246E0
1.079536404E1,1.228881393E0,1.653563935E0,2.719614844E0,3.411851120E0
1.080542504E1,2.264342009E0,1.607946298E0,1.887266035E0,3.357753582E0
1.081548604E1,2.465965261E0,9.786514074E-1,1.164136198E0,2.897232529E0
1.082554704E1,1.367830971E0,-4.467272758E-3,8.882714336E-1,1.630952992E0
1.083560804E1,-1.025289457E0,-7.432413357E-1,1.650732421E0,2.080515244E0
1.084567004E1,-3.223681086E0,-9.773387074E-1,2.764192847E0,4.357530584E0
1.085573104E1,-4.459702953E0,-1.088549826E0,3.061935407E0,5.518092024E0
1.086579204E1,-4.626483378E0,-1.454132366E0,3.419113744E0,5.933733073E0
1.087585304E1,-4.051909655E0,-2.006766751E0,3.966565157E0,6.014875210E0
1.088591404E1,-4.155924312E0,-2.443349692E0,4.057828207E0,6.301399397E0
1.089597604E1,-5.039091273E0,-2.388940766E0,3.215356990E0,6.437235386E0
1.090603704E1,-5.794028209E0,-1.878150811E0,1.905971424E0,6.382079632E0
1.091609804E1,-6.189750223E0,-1.412477971E0,1.105506166E0,6.444396460E0
1.092615904E1,-5.898734300E0,-1.675144254E0,1.606715166E0,6.338983218E0
1.093622004E1,-5.125596735E0,-2.311732961E0,3.481205328E0,6.613217198E0
1.094628204E1,-4.734741359E0,-2.897899373E0,5.253450783E0,7.642927558E0
1.095634304E1,-5.142653648E0,-3.900795676E0,5.501751627E0,8.481294972E0
1.096640404E1,-5.985191815E0,-4.841228512E0,4.600624359E0,8.968040982E0
1.097646504E1,-6.521365703E0,-5.193175346E0,3.521379792E0,9.049718031E0
1.098652704E1,-5.778053616E0,-4.362992930E0,3.940549141E0,8.243151001E0
1.099658804E1,-5.115902637E0,-3.244748020E0,4.765346271E0,7.707747698E0
1.100664904E1,-5.305442471E0,-2.563331634E0,4.564473363E0,7.453375474E0
1.101671004E1,-4.869961730E0,-1.943456023E0,3.274437257E0,6.181867672E0
1.102677104E1,-3.673624915E0,-1.463711860E0,2.468210299E0,4.661548510E0
1.103683304E1,-1.960810998E0,-9.293991405E-1,2.926629667E0,3.643312194E0
1.104689404E1,5.303941344E-1,-1.055179766E0,3.077567353E0,3.296383335E0
1.105695504E1,2.362795526E0,-1.530095299E0,1.717327237E0,3.297454649E0
1.106701604E1,3.523837084E0,-2.601563653E0,-3.990140327E-1,4.398269369E0
1.107707704E1,4.039306274E0,-4.227526976E0,-1.965519322E0,6.168569179E0
1.108713904E1,3.040155113E0,-5.800582938E0,-1.945773860E0,6.831935410E0
1.109720004E1,2.156111655E0,-5.951932853E0,-1.641456690E0,6.539778454E0
1.110726104E1,2.338449766E0,-5.934896405E0,-1.548470174E0,6.564229013E0
1.111732204E1,3.574495607E0,-6.535862705E0,-1.131683639E0,7.534933842E0
1.112738304E1,4.353213169E0,-7.457597900E0,-1.484586127E-1,8.636450156E0
1.113744504E1,5.893551913E0,-8.788530017E0,9.581393749E-1,1.062498212E1
1.114750604E1,6.328029272E0,-9.220932199E0,2.170236774E0,1.139207939E1
1.115756704E1,3.903006215E0,-7.290386243E0,2.519155335E0,8.644612929E0
1.116762804E1,1.556962378E0,-4.487253864E0,1.692077498E-1,4.752705582E0
1.117769004E1,5.204334757E-1,-3.103098051E0,-4.218620205E0,5.262777304E0
1.118775104E1,1.169335103E0,-3.063595431E0,-7.443345897E0,8.133655985E0
1.119781204E1,-4.537775561E-2,-1.590224556E0,-6.661023526E0,6.848365330E0
1.120787304E1,-2.404774003E0,-3.066923082E-2,-5.979761506E0,6.445263864E0
1.121793404E1,-2.351997619E0,1.316366118E0,-2.152679340E0,3.449455159E0
1.122799604E1,-1.298076759E0,2.082762428E0,-2.116172249E0,3.240538163E0
1.123805704E1,4.143009567E-1,2.889057214E0,-2.543151138E0,3.871164499E0
1.124811804E1,1.338520341E0,3.212661424E0,-4.441998754E0,5.643065041E0
1.125817904E1,2.136724188E0,3.992898678E0,-4.851833899E0,6.636951280E0
1.126824004E1,1.766118597E0,4.949610162E0,-4.081865233E0,6.654279784E0
1.127830204E1,1.797194356E0,5.884400436E0,-4.270496995E0,7.489540748E0
1.128836304E1,1.649219308E0,6.355756184E0,-5.508473001E0,8.570813018E0
1.129842404E1,1.731037204E0,6.542007544E0,-5.904304942E0,8.980822310E0
1.130848504E1,1.989847979E0,6.518623359E0,-5.786975298E0,8.940974699E0
1.131854604E1,2.266821959E0,7.090031399E0,-5.890782087E0,9.492541316E0
1.132860804E1,2.857890092E0,7.572796234E0,-6.077221727E0,1.012163043E1
1.133866904E1,3.673191637E0,7.839952009E0,-5.753713996E0,1.039530707E1
1.134873004E1,4.048795720E0,7.831118036E0,-5.017962359E0,1.014391949E1
1.135879104E1,4.392114987E0,7.359004489E0,-4.305755705E0,9.590889079E0
1.136885204E1,3.993983336E0,7.084525076E0,-3.254449720E0,8.759785467E0
1.137891363E1,3.198383108E0,6.242917786E0,-1.328263156E0,7.139184827E0
1.138897463E1,2.564108436E0,4.570566747E0,1.313410058E0,5.402756559E0
1.139903563E1,1.368802194E0,1.836395844E0,5.313382990E0,5.786018315E0
1.140909663E1,-8.772320366E-1,-2.113680750E0,9.538259423E0,9.808953827E0
1.141915763E1,-4.097839242E0,-6.051982221E0,1.081461714E1,1.305276672E1
1.142921963E1,-7.072006772E0,-7.578057559E0,9.518115181E0,1.407248211E1
1.143928063E1,-7.028513428E0,-6.744263318E0,7.820127025E0,1.249157618E1
1.144934162E1,-4.004936340E0,-4.801135908E0,5.968809671E0,8.643905946E0
1.145940262E1,-1.431910900E0,-2.909837049E0,4.264389870E0,5.357475286E0
1.146946462E1,5.802220597E-1,-1.463717707E0,2.038708336E0,2.575938439E0
1.147952563E1,1.269447183E0,5.101871073E-2,7.936127597E-1,1.497972053E0
1.148958663E1,5.836869735E-1,1.604605783E0,5.040872920E-1,1.780324184E0
1.149964763E1,-1.469861742E-1,2.932673934E0,3.817553544E-1,2.961067120E0
1.150970863E1,2.111511068E-1,3.814294306E0,1.986602628E0,4.305811868E0
1.151977063E1,1.800830154E0,1.652115580E0,4.122832580E0,4.792726116E0
1.152983163E1,3.806872143E0,-3.431005812E0,3.185080985E0,6.033971931E0
1.153989263E1,4.952530847E0,-9.244161433E0,-4.224817961E-1,1.049574072E1
1.154995363E1,6.036054990E0,-1.632029692E1,4.984195858E-2,1.740081997E1
1.156001463E1,4.139200106E0,-2.313289256E1,5.996794446E0,2.425335522E1
1.157007662E1,1.135360441E-1,-1.734453498E1,5.334145283E0,1.814659445E1
1.158013762E1,7.898125081E-1,1.536366438E0,-9.409253474E0,9.566518518E0
1.159019862E1,5.156077686E0,1.131458916E1,-1.162204979E1,1.701990324E1
1.160025963E1,9.224475027E0,1.273431066E1,-2.970105762E0,1.600234782E1
1.161032063E1,9.112789115E0,1.255587118E1,-3.291150938E0,1.585952399E1
1.162038263E1,7.025545381E0,8.517686988E0,-7.008660961E0,1.307786710E1
1.163044363E1,5.033235286E0,3.623876220E0,-9.044003055E0,1.096630875E1
1.164050463E1,3.831921615E0,-4.176736307E-1,-9.055240234E0,9.841516663E0
1.165056563E1,2.679567557E0,-3.260640167E0,-9.380193397E0,1.028590709E1
1.166062663E1,1.324086051E0,-4.864098142E0,-7.433224366E0,8.981396277E0
1.167068863E1,1.442992415E-1,-4.799982253E0,-5.543176226E0,7.333993085E0
1.168074962E1,-1.673852750E0,-4.065636286E0,-5.879910944E0,7.341970726E0
1.169081062E1,-3.626599853E0,-3.570596976E0,-6.036902837E0,7.895922056E0
1.170087162E1,-4.747209377E0,-3.628970314E0,-6.223973392E0,8.628051182E0
1.171093362E1,-5.340512316E0,-2.959836005E0,-6.562683883E0,8.963845198E0
1.172099463E1,-6.217255526E0,-2.190454107E0,-6.256033090E0,9.087920856E0
1.173105563E1,-6.921956109E0,-1.889961601E0,-2.793121946E0,7.699802688E0
1.174111663E1,-6.326553435E0,-1.113622102E0,1.455471086E0,6.586640163E0
1.175117763E1,-4.439833822E0,-1.099978209E-2,3.621106979E0,5.729281029E0
1.176123963E1,-2.448850753E0,1.155151366E0,3.766204466E0,4.638484749E0
1.177130063E1,-8.631282601E-1,2.167809010E0,2.267674191E0,3.253725946E0
1.178136163E1,7.002325065E-1,2.946503184E0,4.653215678E-1,3.064103578E0
1.179142263E1,2.282499222E0,3.608868172E0,-1.795200455E0,4.632113648E0
1.180148363E1,2.241166716E0,3.326816030E0,-3.724530775E0,5.473816095E0
1.181154562E1,1.200041318E0,2.475674270E0,-2.585124207E0,3.775172767E0
1.182160662E1,6.232480652E-1,1.748649017E0,-1.891767222E-1,1.866011621E0
1.183166762E1,-9.363717990E-1,8.430024362E-1,1.380736946E0,1.869192277E0
1.184172863E1,-1.537641423E0,-5.929485977E-2,2.617883232E0,3.036637885E0
1.185178963E1,-2.193555324E0,-3.360862613E-1,2.820161226E0,3.588585832E0
1.186185163E1,-2.686097142E0,-1.374446511E-1,2.553683728E0,3.708815104E0
1.187191263E1,-2.448006122E0,5.955155253E-1,2.606611555E0,3.625161584E0
1.188197363E1,-2.032528998E0,1.410947755E0,2.257369058E0,3.349277946E0
1.189203463E1,-2.154058990E0,2.204188047E0,1.498430872E0,3.426909710E0
1.190209563E1,-1.948531991E0,3.011432421E0,1.255466198E0,3.800223351E0
1.191215763E1,-7.444587260E-1,3.308527109E0,4.184478021E-1,3.416967806E0
1.192221862E1,3.006231542E-1,2.761000852E0,-2.060161916E-1,2.784949310E0
1.193227962E1,1.119050949E0,2.331155657E0,1.949716783E-1,2.593178683E0
1.194234062E1,1.659872058E0,1.926062311E0,1.050109791E0,2.750931087E0
1.195240263E1,1.038477633E0,7.073388469E-1,2.217387113E0,2.548640745E0
1.196246363E1,-7.880926958E-1,-3.377714288E-1,3.230401876E0,3.342256112E0
1.197252463E1,-2.506056987E0,-1.100217944E0,3.482168072E0,4.429028745E0
1.198258563E1,-3.930845101E0,-1.788870260E0,2.653820804E0,5.068960927E0
1.199264663E1,-5.138081126E0,-3.027942034E0,1.982919613E0,6.284924885E0
1.200270863E1,-6.065898010E0,-3.635791676E0,1.551986690E0,7.240356515E0
1.201276963E1,-6.018895167E0,-2.818269652E0,1.769957733E0,6.877680803E0
1.202283063E1,-4.991313089E0,-2.185675762E0,3.456437691E0,6.452700706E0
1.203289163E1,-4.035288652E0,-2.098090319E0,4.527778284E0,6.417656401E0
1.204295263E1,-3.546028437E0,-2.105577094E0,3.894638265E0,5.672387486E0
1.205301462E1,-3.661558017E0,-2.423523538E0,3.180744982E0,5.421956482E0
1.206307562E1,-4.202665785E0,-2.875926121E0,2.793855772E0,5.808526563E0
1.207313662E1,-5.505311412E0,-3.425079659E0,2.287457807E0,6.875469993E0
1.208319763E1,-6.764144436E0,-4.445329912E0,2.203644841E0,8.388722106E0
1.209325863E1,-7.083315872E0,-5.217133142E0,2.407235534E0,9.120670199E0
1.210332063E1,-6.682202725E0,-5.478213075E0,3.089846214E0,9.176589856E0
1.211338163E1,-6.424317126E0,-5.548151622E0,3.529422053E0,9.192967801E0
1.212344263E1,-6.081619418E0,-5.099252690E0,3.709176571E0,8.760505898E0
1.213350363E1,-5.468133645E0,-4.153101861E0,4.565951539E0,8.246008373E0
1.214356463E1,-4.567162498E0,-3.086314788E0,4.676839306E0,7.228909886E0
1.215362663E1,-2.824257785E0,-2.076206530E0,5.077302243E0,6.169770146E0
1.216368762E1,-5.557417412E-1,-1.656406851E0,5.435955248E0,5.709828544E0
1.217374862E1,1.731296089E0,-2.277196966E0,2.766134123E0,3.979260001E0
1.218380962E1,3.378135288E0,-3.419082170E0,-2.093027215E0,5.242392949E0
1.219387163E1,3.416085472E0,-4.724537383E0,-4.359161249E0,7.279641491E0
1.220393263E1,2.284998322E0,-5.288035895E0,-4.022046463E0,7.025766770E0
1.221399363E1,1.764347914E0,-4.903355763E0,-2.800072532E0,5.915760939E0
1.222405463E1,2.798348773E0,-5.250273407E0,-1.379883837E0,6.107389467E0
1.223411563E1,4.159928193E0,-6.025562162E0,1.083572383E-1,7.322850758E0
1.224417763E1,4.409657219E0,-6.459716170E0,1.057227607E0,7.892448289E0
1.225423863E1,4.539972068E0,-6.681648409E0,1.421052913E0,8.202143819E0
1.226429963E1,5.547897853E0,-7.652604296E0,1.080366647E0,9.513606844E0
1.227436063E1,3.974185249E0,-6.214519613E0,4.175946933E-1,7.388422548E0
1.228442163E1,2.170336761E0,-4.012450013E0,-1.105555868E0,4.693865202E0
1.229448362E1,1.811798069E0,-2.962395916E0,-4.138399038E0,5.402291033E0
1.230454462E1,9.540246892E-1,-1.757431535E0,-7.579177301E0,7.838536679E0
1.231460562E1,-1.383944728E0,-3.064519876E-1,-7.739567596E0,7.868298571E0
1.232466663E1,-2.436260820E0,7.437120366E-1,-6.276695396E0,6.773874776E0
1.233472763E1,-2.599343173E0,1.749104515E0,-4.846529013E0,5.771030671E0
1.234478963E1,-3.134356681E0,2.396417601E0,-2.021678320E0,4.433304902E0
1.235485063E1,-3.022574290E0,3.141903682E0,-1.996933196E0,4.795336930E0
1.236491163E1,-1.804795005E0,3.678911968E0,-2.787343436E0,4.955901705E0
1.237497263E1,-1.243841641E-1,4.109541859E0,-3.876225091E0,5.650568703E0
1.238503329E1,-2.921678245E-2,4.901465358E0,-5.064190446E0,7.047782712E0
1.239509529E1,4.056366988E-1,5.194229599E0,-5.468342975E0,7.552968764E0
1.240515629E1,8.221639828E-1,5.318848967E0,-5.741660546E0,7.869737847E0
1.241521729E1,1.705584859E0,5.556990273E0,-6.077583085E0,8.409885657E0
1.242527829E1,2.402182224E0,5.726430303E0,-6.675360314E0,9.117177128E0
1.243533929E1,3.386414945E0,5.893548405E0,-6.475894246E0,9.388233341E0
1.244540129E1,4.480013841E0,5.838609720E0,-5.965498978E0,9.473492785E0
1.245546229E1,5.605091808E0,5.718643566E0,-5.740029173E0,9.852302945E0
1.246552329E1,6.781577325E0,5.791318025E0,-5.078918998E0,1.026277612E1
1.247558429E1,6.830750654E0,5.182726956E0,-4.448519568E0,9.659665603E0
1.248564529E1,6.329560073E0,4.687950186E0,-3.743944700E0,8.721085344E0
1.249570729E1,3.468697841E0,4.185798322E0,-1.701844102E0,5.696406381E0
1.250576829E1,1.809594254E0,2.964457060E0,1.039751887E0,3.625427010E0
1.251582929E1,8.276824388E-1,1.546207886E0,2.201952657E0,2.815033312E0
1.252589029E1,-4.249127030E-1,-2.440949410E-1,4.308451856E0,4.336229992E0
1.253595229E1,-2.552392955E0,-2.298113626E0,6.288033147E0,7.164872427E0
1.254601329E1,-5.268020875E0,-4.112115219E0,7.060478987E0,9.721723049E0
1.255607429E1,-6.925846846E0,-4.802063277E0,6.926978282E0,1.090917936E1
1.256613529E1,-7.187425547E0,-4.236798322E0,5.744299979E0,1.012948806E1
1.257619629E1,-6.311488668E0,-3.385729651E0,4.111717023E0,8.258587734E0
1.258625829E1,-4.949580342E0,-2.632572607E0,2.502942468E0,6.139503652E0
1.259631929E1,-3.100919378E0,-1.405525632E0,1.633322921E0,3.776102098E0
1.260638029E1,-1.657869971E0,1.724893534E-1,1.776479132E0,2.436013860E0
1.261644129E1,-1.429798886E0,1.650549111E0,2.272934346E0,3.151962526E0
1.262650229E1,-1.942447963E0,2.241463462E0,3.239541951E0,4.392253931E0
1.263656429E1,-1.490033539E0,8.724034059E-1,4.319292009E0,4.651620268E0
1.264662529E1,2.456650646E0,-2.436838818E0,1.868800528E0,3.932649391E0
1.265668629E1,6.698856180E0,-7.241535096E0,-1.898239505E0,1.004578608E1
1.266674729E1,8.580589580E0,-1.178009301E1,-1.319030694E0,1.463341898E1
1.267680829E1,8.959427758E0,-1.538036402E1,6.847357916E0,1.907126775E1
1.268687029E1,6.528385870E0,-1.386804134E1,1.145854176E1,1.913741288E1
1.269693129E1,3.176678536E0,-1.040429580E0,-3.074348169E0,4.541519227E0
1.270699229E1,3.277411736E0,9.435660084E0,-1.235848555E1,1.589041453E1
1.271705329E1,6.427932460E0,1.176684322E1,-7.883234854E0,1.555385184E1
1.272711429E1,8.000285586E0,1.073376418E1,-4.239890329E0,1.404261133E1
1.273717629E1,6.111002846E0,7.873049004E0,-8.208155272E0,1.291135428E1
1.274723729E1,4.997911087E0,3.627470503E0,-9.474251123E0,1.130924807E1
1.275729829E1,4.877484757E0,-3.764688867E-1,-6.606002396E0,8.220149271E0
1.276735929E1,4.786584820E0,-3.755417522E0,-6.023737246E0,8.561539897E0
1.277742129E1,2.640969209E0,-5.634517336E0,-6.906170381E0,9.296111730E0
1.278748229E1,4.670276757E-1,-5.968626069E0,-6.073105288E0,8.527908292E0
1.279754329E1,-2.428499811E0,-5.588338366E0,-6.547471182E0,8.944077141E0
1.280760429E1,-4.647380157E0,-4.934693915E0,-6.880162550E0,9.658466911E0
1.281766529E1,-5.853447615E0,-3.940263212E0,-5.834974506E0,9.156170086E0
1.282772729E1,-5.953713330E0,-3.258594811E0,-4.931767969E0,8.389724540E0
1.283778829E1,-5.326393045E0,-2.713069471E0,-3.052194823E0,6.711713794E0
1.284784929E1,-4.780920914E0,-1.698316770E0,-8.091618218E-1,5.137725907E0
1.285791029E1,-3.507940552E0,-2.829625529E-1,5.273806988E-1,3.558629669E0
1.286797129E1,-1.938116931E0,6.036577731E-1,8.497255647E-1,2.200621158E0
1.287803329E1,-3.298254282E-1,1.169430267E0,7.183874533E-2,1.217174091E0
1.288809429E1,4.311813932E-1,1.354838458E0,-1.210542040E0,1.867328753E0
1.289815529E1,5.733202987E-1,1.585642093E0,-1.701841471E0,2.395667215E0
1.290821629E1,1.269576699E0,2.051388023E0,-1.565669174E0,2.875993355E0
1.291827729E1,8.720951845E-1,2.662309792E0,-1.410285850E0,3.136454945E0
1.292833929E1,5.943237897E-3,2.708726159E0,-8.806316078E-1,2.848288040E0
1.293840029E1,-3.287986937E-1,2.395182669E0,6.660570659E-2,2.418562572E0
1.294846129E1,-7.237823137E-1,1.747455016E0,4.748769414E-1,1.950119991E0
1.295852229E1,-4.306066485E-1,1.653055812E0,1.309890912E0,2.152633226E0
1.296858329E1,-3.660836836E-1,1.061535689E0,1.523779721E0,1.892823267E0
1.297864529E1,-5.040845511E-1,3.034096813E-1,1.449522421E0,1.564376527E0
1.298870629E1,-2.147357606E-1,2.890664613E-1,2.282609149E0,2.310838678E0
1.299876729E1,2.904510454E-1,4.272502005E-1,3.623386223E0,3.660031730E0
1.300882829E1,1.896005539E-1,7.650134432E-1,3.785834738E0,3.867006413E0
1.301889029E1,-5.039568990E-4,1.168967752E0,2.916494104E0,3.142041329E0
1.302895129E1,-9.426314626E-3,1.778020166E0,2.359799412E0,2.954673896E0
1.303901229E1,-1.865345481E-1,2.069976906E0,2.139070530E0,2.982485920E0
1.304907329E1,-3.278978205E-1,2.178465561E0,1.306603461E0,2.561335937E0
1.305913429E1,-6.535823236E-1,1.815386213E0,3.166008537E-1,1.955257798E0
1.306919629E1,-1.391843440E0,1.524849762E0,3.211233095E-1,2.089381520E0
1.307925729E1,-2.615582938E0,1.146181737E0,8.466056366E-1,2.978547932E0
1.308931829E1,-4.135672481E0,5.555930758E-1,1.176761359E0,4.335578143E0
1.309937929E1,-5.380968032E0,-4.165907264E-1,8.831902032E-1,5.468856346E0
1.310944029E1,-6.052664006E0,-1.328823026E0,7.026903105E-1,6.236528352E0
1.311950229E1,-6.339206225E0,-1.588128914E0,1.431372810E0,6.690031175E0
1.312956329E1,-6.574482980E0,-1.633761755E0,2.362995647E0,7.174730124E0
1.313962429E1,-6.119057971E0,-1.999001064E0,2.436469274E0,6.882968707E0
1.314968529E1,-5.739977133E0,-3.229915388E0,2.597132341E0,7.079886107E0
1.315974629E1,-5.312682493E0,-3.972786595E0,2.562993957E0,7.111720370E0
1.316980829E1,-4.877260809E0,-4.143886065E0,4.705323433E0,7.943521469E0
1.317986929E1,-3.927260758E0,-3.949310024E0,6.651190263E0,8.675180612E0
1.318993029E1,-2.453338491E0,-3.674123683E0,7.417699424E0,8.633673571E0
1.319999129E1,-2.313359364E0,-3.936125722E0,7.033530339E0,8.385419863E0
1.321005229E1,-3.245236554E0,-4.178382298E0,5.264150019E0,7.463358114E0
1.322011429E1,-4.121661675E0,-4.472105482E0,4.334065000E0,7.468061451E0
1.323017529E1,-4.949303768E0,-3.998345359E0,4.662753364E0,7.888196393E0
1.324023629E1,-5.679611063E0,-3.479148862E0,5.243723356E0,8.476974299E0
1.325029729E1,-6.054717548E0,-2.538275730E0,4.802326401E0,8.134174029E0
1.326035829E1,-5.755782157E0,-2.080549842E0,2.409032968E0,6.577321318E0
1.327042029E1,-4.881490685E0,-1.737425287E0,1.179541272E0,5.314030066E0
1.328048129E1,-2.612736513E0,-8.013433635E-1,2.564473010E0,3.747674625E0
1.329054229E1,-4.909853628E-1,-8.815069360E-1,2.590284959E0,2.779873608E0
1.330060329E1,1.207069378E0,-2.036121528E0,6.101101756E-2,2.367811163E0
1.331066429E1,2.803658337E0,-3.436787539E0,-1.603831612E0,4.716384685E0
1.332072629E1,3.211482625E0,-5.011728058E0,-1.924997387E0,6.255929485E0
1.333078729E1,2.294531037E0,-5.716531552E0,-1.329158657E0,6.301608398E0
1.334084829E1,2.257629552E0,-6.062835823E0,-1.040001563E0,6.552592819E0
1.335090929E1,2.575654641E0,-6.780593238E0,-1.760705245E0,7.463948315E0
1.336097129E1,3.502749686E0,-7.478625657E0,-1.887553133E0,8.471242761E0
1.337103229E1,5.657528468E0,-8.161062382E0,-1.116859559E0,9.992894618E0
1.338109304E1,5.894114415E0,-9.393905702E0,-3.651972091E-1,1.109591898E1
1.339115404E1,3.720522509E0,-8.145587726E0,1.738908725E0,9.122318274E0
1.340121504E1,1.984565458E0,-5.457421546E0,5.071135184E-1,5.829160669E0
1.341127704E1,7.600299344E-1,-3.633104880E0,-2.329398277E0,4.382144784E0
1.342133804E1,1.956600418E-1,-1.692437394E0,-4.483944340E0,4.796705539E0
1.343139904E1,-8.379473720E-1,-4.015908641E-1,-7.326319138E0,7.385010706E0
1.344146004E1,-1.277323090E0,-3.250432098E-1,-6.860492517E0,6.985954834E0
1.345152104E1,-2.041979268E-1,1.836119270E-1,-1.219506699E0,1.250042688E0
1.346158304E1,9.831691124E-1,7.404609847E-1,2.765414330E-1,1.261498766E0
1.347164404E1,1.351803607E0,1.006858960E0,-2.131562120E0,2.717479537E0
1.348170504E1,2.140411589E0,1.590162576E0,-3.790075139E0,4.634074702E0
1.349176604E1,2.941470485E0,2.742883254E0,-4.265237132E0,5.862414601E0
1.350182704E1,2.800686782E0,3.256518465E0,-4.393300510E0,6.144090521E0
1.351188904E1,2.602400390E0,3.997039676E0,-4.969459705E0,6.887985462E0
1.352195004E1,2.354933067E0,4.923949072E0,-5.950223712E0,8.074413070E0
1.353201104E1,2.452724825E0,5.435867540E0,-5.475302331E0,8.095890970E0
1.354207204E1,3.034793509E0,5.871307935E0,-5.427210152E0,8.552007866E0
1.355213404E1,3.602605804E0,6.281687164E0,-5.649767459E0,9.184673894E0
1.356219504E1,3.979655026E0,6.369256235E0,-5.136217618E0,9.098670812E0
1.357225604E1,3.952544996E0,6.526686670E0,-4.870856061E0,9.052374804E0
1.358231704E1,4.075765418E0,6.636942937E0,-4.479851874E0,8.984984591E0
1.359237804E1,3.838728943E0,6.972834486E0,-4.030274080E0,8.921847893E0
1.360244004E1,3.451137775E0,7.450725083E0,-3.532137499E0,8.938660499E0
1.361250104E1,3.139959483E0,7.403857895E0,-2.965201410E0,8.571398759E0
1.362256204E1,2.122544106E0,6.864349925E0,-1.819544753E0,7.411830845E0
1.363262304E1,1.345413039E0,6.053328835E0,-1.186309424E-1,6.202176999E0
1.364268404E1,7.177235019E-1,5.251967930E0,1.801114914E0,5.598420232E0
1.365274604E1,-2.469969141E-1,3.430453835E0,4.991361036E0,6.061576196E0
1.366280704E1,-2.989167685E0,-8.790727401E-1,9.135928302E0,9.652620280E0
1.367286804E1,-7.867979468E0,-6.844103941E0,1.239660472E1,1.619946506E1
1.368292904E1,-1.116343279E1,-1.191599751E1,1.281703590E1,2.075788133E1
1.369299004E1,-1.185954147E1,-1.323210401E1,8.158812958E0,1.955258370E1
1.370305204E1,-9.017713974E0,-1.098625865E1,2.375790670E0,1.441046237E1
1.371311304E1,-4.936124729E0,-6.996306379E0,1.014831054E0,8.622268400E0
1.372317404E1,-1.279733897E0,-3.138757296E0,8.263326091E-1,3.488888331E0
1.373323504E1,1.845220461E0,7.542615831E-1,4.970460749E-1,2.054459512E0
1.374329604E1,4.097984545E0,4.094733201E0,4.583918864E-1,5.811233986E0
1.375335804E1,5.131217079E0,6.116327321E0,2.220006520E-1,7.986747329E0
1.376341904E1,6.400737644E0,7.143940389E0,1.163973937E0,9.662306246E0
1.377348004E1,6.845233623E0,5.529858608E0,2.436819814E0,9.130972039E0
1.378354104E1,6.704915650E0,1.634523062E0,3.078238906E0,7.556660259E0
1.379360204E1,6.151441020E0,-8.949169403E-1,1.158211506E0,6.323176168E0
1.380366404E1,5.432168006E0,-2.242042921E0,-3.182958153E-1,5.885279767E0
1.381372504E1,3.428100915E0,-5.583594519E0,1.059820116E0,6.637139619E0
1.382378604E1,1.794978261E-2,-9.620753696E0,3.007041746E-1,9.625468657E0
1.383384704E1,-1.909240310E0,-8.823204591E0,-3.366873550E0,9.634831359E0
1.384390904E1,1.372977398E-2,-3.339613831E0,-7.403760831E0,8.122123090E0
1.385397004E1,2.948579822E0,-3.970610261E-2,-2.948538015E0,4.170081051E0
1.386403104E1,4.180011625E0,7.683603895E-1,-6.746216288E-1,4.303253329E0
1.387409204E1,4.313126121E0,8.636021769E-1,-4.655348450E0,6.404774379E0
1.388415304E1,3.635697536E0,5.869762516E-1,-7.239712518E0,8.122578103E0
1.389421504E1,2.825305314E0,1.021239603E-1,-6.890926105E0,7.448331491E0
1.390427604E1,2.273166481E0,5.024266827E-1,-5.249061279E0,5.742156627E0
1.391433704E1,1.937798404E0,1.084220547E0,-4.280897437E0,4.822517985E0
1.392439804E1,1.802422059E0,9.433172679E-1,-4.612142789E0,5.040876298E0
1.393445904E1,1.352495771E0,4.214480084E-1,-5.410122834E0,5.592521105E0
1.394452104E1,8.564198226E-1,-5.168856776E-1,-5.893632020E0,5.977919713E0
1.395458204E1,3.169279323E-1,-1.407627121E0,-6.677367663E0,6.831478342E0
1.396464304E1,-2.079729623E-1,-2.310564687E0,-7.045073912E0,7.417211629E0
1.397470404E1,-5.109723884E-1,-2.880455375E0,-6.420548011E0,7.055604348E0
1.398476504E1,-1.418718705E0,-3.214627258E0,-4.744104506E0,5.903652999E0
1.399482704E1,-2.115550105E0,-2.748549206E0,-2.994578991E0,4.582311460E0
1.400488804E1,-2.282437387E0,-1.335512826E0,-1.438427183E0,3.010346774E0
1.401494904E1,-1.539637955E0,8.472615480E-2,-8.151325598E-2,1.544120450E0
1.402501004E1,-6.767048456E-1,9.957170910E-1,6.068151234E-1,1.348186399E0
1.403507104E1,8.318197824E-2,1.725656011E0,8.077523504E-1,1.907163278E0
1.404513304E1,9.813933130E-1,2.015556870E0,2.053355026E-1,2.251169696E0
1.405519404E1,1.218949313E0,2.052152839E0,-1.058088756E0,2.610885006E0
1.406525504E1,1.550540965E0,2.215499486E0,-2.518435543E0,3.695285218E0
1.407531604E1,1.523163132E0,2.176961072E0,-2.821737050E0,3.875743209E0
1.408537704E1,7.739737165E-1,1.992498960E0,-1.769740363E0,2.775079885E0
1.409543904E1,-1.897870984E-1,1.402062326E0,1.073829095E-1,1.418918249E0
1.410550004E1,-1.869105607E0,7.568314344E-1,1.513633633E0,2.521395717E0
1.411556104E1,-2.849562196E0,3.431496978E-1,2.601820346E0,3.873916046E0
1.412562204E1,-3.415474730E0,2.506923544E-1,2.835332412E0,4.446057149E0
1.413568304E1,-3.934809221E0,-4.343487203E-2,1.878115143E0,4.360266814E0
1.414574504E1,-3.728249896E0,5.538833499E-2,1.398600190E0,3.982335703E0
1.415580604E1,-3.173468999E0,8.468504888E-1,1.475461839E0,3.600701165E0
1.416586704E1,-2.791414559E0,1.497964264E0,1.877530421E0,3.682528026E0
1.417592804E1,-2.326670843E0,1.482387282E0,2.397712759E0,3.655119114E0
1.418599004E1,-1.412885961E0,1.544641417E0,2.463476393E0,3.232782051E0
1.419605104E1,1.016604953E-1,1.561853866E0,2.291674672E0,2.775156781E0
1.420611204E1,1.047021877E0,1.754067047E0,2.249966337E0,3.038972612E0
1.421617304E1,1.871432945E0,1.876768529E0,1.752919385E0,3.177616677E0
1.422623404E1,2.293504997E0,1.184090990E0,1.558498149E0,3.015153914E0
1.423629604E1,1.656194890E0,4.418004119E-1,2.135823133E0,2.738596277E0
1.424635704E1,-3.772123602E-1,-1.159444392E-2,2.313591352E0,2.344169051E0
1.425641804E1,-3.370929179E0,-8.457728469E-1,2.171666564E0,4.098125292E0
1.426647904E1,-5.486157103E0,-1.988473152E0,1.729994791E0,6.086446189E0
1.427654004E1,-6.812143645E0,-2.964217324E0,1.728276441E0,7.627504496E0
1.428660204E1,-7.029772918E0,-3.418319693E0,1.961850487E0,8.059247740E0
1.429666304E1,-6.487645395E0,-3.474510266E0,2.396077585E0,7.739699746E0
1.430672404E1,-5.394249982E0,-3.170835705E0,3.151507734E0,7.006006918E0
1.431678504E1,-3.925064836E0,-2.915130533E0,3.754428173E0,6.164401910E0
1.432684604E1,-2.290589137E0,-2.992454113E0,4.705719874E0,6.028712942E0
1.433690804E1,-1.928302672E0,-3.025939363E0,6.400287409E0,7.337461355E0
1.434696904E1,-3.027286561E0,-3.475461608E0,6.238169847E0,7.756162733E0
1.435703004E1,-4.960500017E0,-3.962718274E0,4.214115218E0,7.620266636E0
1.436709104E1,-6.872991525E0,-4.440144017E0,3.480856833E0,8.892089501E0
1.437715304E1,-7.629779690E0,-4.596771628E0,4.465318619E0,9.964081387E0
1.438721450E1,-7.455842566E0,-4.451475336E0,5.332667692E0,1.019031725E1
1.439727550E1,-7.090369953E0,-4.519203050E0,5.769635965E0,1.019731540E1
1.440733650E1,-6.986541529E0,-3.826746536E0,4.873807443E0,9.338616096E0
1.441739750E1,-6.450672866E0,-2.814743196E0,3.240515220E0,7.748219058E0
1.442745950E1,-4.408085195E0,-2.095829201E0,3.239247544E0,5.858023538E0
1.443752050E1,-1.706985705E0,-1.356362243E0,3.646839405E0,4.248877073E0
1.444758150E1,8.625953595E-1,-1.456875295E0,1.758124430E0,2.440810909E0
1.445764250E1,2.806685733E0,-2.614397707E0,-1.707923745E0,4.198757398E0
1.446770350E1,3.753586759E0,-4.392150071E0,-3.991438043E0,7.022248461E0
1.447776550E1,3.533484406E0,-5.856148444E0,-3.925699552E0,7.886133629E0
1.448782650E1,3.786489919E0,-6.291497623E0,-2.802304414E0,7.859602933E0
1.449788750E1,4.825003073E0,-6.938331821E0,-1.104094137E0,8.522917750E0
1.450794850E1,5.290927343E0,-7.200094124E0,2.141810974E-1,8.937625025E0
1.451800950E1,6.642659175E0,-8.211652492E0,1.496687086E0,1.066753157E1
1.452807150E1,5.195365713E0,-8.235210924E0,2.803659799E0,1.013267152E1
1.453813250E1,3.849471155E0,-7.265440267E0,2.901263569E0,8.719081417E0
1.454819350E1,3.384862217E0,-5.678601249E0,1.191704650E0,6.717437335E0
1.455825450E1,2.046789919E0,-3.525654691E0,-3.335133110E0,5.267134215E0
1.456831550E1,1.064918669E0,-2.092257721E0,-6.333838481E0,6.754931831E0
1.457837750E1,-9.017635182E-1,-7.734188157E-1,-8.858367991E0,8.937675178E0
1.458843850E1,-2.430134254E0,-1.871804827E-1,-8.555610859E0,8.896014063E0
1.459849950E1,-2.565152457E0,3.418212104E-1,-3.747504778E0,4.554189382E0
1.460856050E1,-1.508742437E0,7.295752233E-1,-1.122173362E0,2.016892858E0
1.461862150E1,-5.514104162E-1,1.499434839E0,-1.541631855E0,2.220132217E0
1.462868350E1,7.412124981E-1,2.139279276E0,-3.081716537E0,3.823988573E0
1.463874450E1,1.864665670E0,3.130130314E0,-4.496660864E0,5.787456503E0
1.464880550E1,1.577327060E0,3.863907931E0,-5.459738798E0,6.872153439E0
1.465886650E1,1.236884331E0,4.610265833E0,-5.812462142E0,7.521246575E0
1.466892850E1,1.341574780E0,5.510675647E0,-5.790913398E0,8.105679920E0
1.467898950E1,1.852112721E0,6.071479762E0,-5.926657094E0,8.684379790E0
1.468905050E1,2.219247405E0,6.492562904E0,-6.210981463E0,9.254983676E0
1.469911150E1,3.183689055E0,6.812160017E0,-5.596336772E0,9.373387080E0
1.470917250E1,3.934642576E0,7.101658587E0,-5.693354359E0,9.916110666E0
1.471923450E1,4.344478306E0,7.220144811E0,-5.939150839E0,1.030914621E1
1.472929550E1,4.088982464E0,7.204515789E0,-5.728228907E0,1.007161515E1
1.473935650E1,3.678296548E0,7.328900684E0,-5.234533871E0,9.728463166E0
1.474941750E1,2.764835748E0,7.181331578E0,-4.324945682E0,8.827286962E0
1.475947850E1,1.322438452E0,6.397814037E0,-3.153578818E0,7.254372975E0
1.476954050E1,7.764400721E-2,5.681521933E0,-1.357540164E0,5.841971873E0
1.477960150E1,-6.235656421E-1,4.814400317E0,8.965202469E-1,4.936702652E0
1.478966250E1,-1.328701112E0,3.483719046E0,3.398063183E0,5.044658406E0
1.479972350E1,-2.350442698E0,7.237601674E-1,7.058601446E0,7.474775182E0
1.480978450E1,-4.976050687E0,-3.807342551E0,1.087766649E1,1.255310982E1
1.481984650E1,-8.690275744E0,-8.373651940E0,1.195688826E1,1.698841123E1
1.482990750E1,-1.000529934E1,-1.127913632E1,9.717577155E0,1.793756496E1
1.483996850E1,-8.044620345E0,-1.122736040E1,5.889088148E0,1.501502238E1
1.485002950E1,-4.569375961E0,-9.021608804E0,3.356810492E0,1.065536479E1
1.486009050E1,-8.390595125E-1,-6.419990187E0,2.249872343E0,6.854357769E0
1.487015250E1,2.905436142E0,-4.306210034E0,1.924805744E0,5.539844870E0
1.488021350E1,5.849992495E0,-7.514315307E-1,1.239303324E0,6.026851107E0
1.489027450E1,7.708521804E0,4.223278390E0,2.967377159E-1,8.794625747E0
1.490033550E1,7.782767410E0,8.218014847E0,1.994087648E-1,1.132020320E1
1.491039650E1,7.292683030E0,9.817868013E0,5.674056208E-1,1.224319024E1
1.492045850E1,8.616289755E0,8.314987410E0,1.016514468E0,1.201718629E1
1.493051950E1,7.487485943E0,5.937442868E0,-7.746648574E-1,9.587271728E0
1.494058050E1,4.600144302E0,2.707825688E0,-2.062350968E0,5.722494130E0
1.495064150E1,2.489657594E0,-2.563066755E0,1.582388118E-1,3.576694793E0
1.496070350E1,3.428820049E-2,-1.221184206E1,3.095009305E0,1.259798971E1
1.497076450E1,-5.943108820E0,-2.295166396E1,3.217401469E0,2.392595020E1
1.498082550E1,-6.244062670E0,-1.774057157E1,-7.602000153E0,2.028562557E1
1.499088650E1,-5.144520664E-1,-2.620516818E0,-8.881576175E0,9.274382172E0
1.500094750E1,5.010465644E0,4.704955643E0,-1.240614270E0,6.984303640E0
1.501100950E1,6.502906044E0,7.082418324E0,-1.564236022E0,9.741420362E0
1.502107050E1,5.179831415E0,7.321070677E0,-6.555421641E0,1.110865799E1
1.503113150E1,4.527192393E0,5.349001304E0,-7.571511016E0,1.031673713E1
1.504119250E1,4.343833943E0,2.738145840E0,-6.308253404E0,8.133904166E0
1.505125350E1,4.068119014E0,8.516627473E-1,-5.509390429E0,6.901326296E0
1.506131550E1,3.111643172E0,-3.218664175E-1,-5.309931378E0,6.162896435E0
1.507137650E1,1.806633808E0,-2.232275732E0,-5.367656261E0,6.087586911E0
1.508143750E1,5.592507650E-1,-4.068021950E0,-6.503997134E0,7.691784105E0
1.509149850E1,-7.148340272E-1,-4.720395216E0,-7.558017982E0,8.939617133E0
1.510155950E1,-1.619540449E0,-4.300276279E0,-7.284261285E0,8.612534459E0
1.511162150E1,-2.740715107E0,-3.272533404E0,-6.274468777E0,7.588804425E0
1.512168250E1,-3.359278894E0,-2.321537572E0,-4.827518545E0,6.322912833E0
1.513174350E1,-4.016542771E0,-1.164381781E0,-3.195009557E0,5.262745180E0
1.514180450E1,-4.235854873E0,-4.722796082E-2,-1.374038960E0,4.453389726E0
1.515186550E1,-3.819336360E0,6.052657574E-1,1.748832035E-1,3.870950917E0
1.516192750E1,-2.537514423E0,5.460971975E-1,8.823756860E-1,2.741493835E0
1.517198850E1,-1.224030251E0,8.295000458E-1,1.069826456E0,1.825061376E0
1.518204950E1,-3.831132606E-1,1.405979961E0,5.725131637E-1,1.565671339E0
1.519211050E1,2.707786183E-1,2.177230044E0,-5.267212790E-1,2.256343731E0
1.520217150E1,5.431744302E-1,3.183795474E0,-1.581629734E0,3.596268163E0
1.521223350E1,6.053225485E-1,3.558247072E0,-2.764810313E0,4.546615629E0
1.522229450E1,9.359674640E-1,3.063891301E0,-3.020807846E0,4.403265270E0
1.523235550E1,1.154275307E0,2.553026501E0,-1.570819986E0,3.212128769E0
1.524241650E1,1.137706271E0,1.692707536E0,1.085746670E0,2.310515136E0
1.525247750E1,-6.016685321E-2,8.202053118E-1,2.083478712E0,2.239919719E0
1.526253950E1,-1.498195814E0,-4.229291081E-3,2.115669973E0,2.592425123E0
1.527260050E1,-1.983734568E0,-4.918829834E-1,2.384693348E0,3.140686879E0
1.528266150E1,-1.935092605E0,-2.000484502E-1,2.516887200E0,3.181088485E0
1.529272250E1,-1.618250553E0,4.153821069E-1,2.353120723E0,2.885906146E0
1.530278350E1,-1.321680799E0,1.371714692E0,2.486885136E0,3.132577056E0
1.531284550E1,-8.711730056E-1,1.911180562E0,2.184899837E0,3.030732724E0
1.532290650E1,-6.739370660E-1,2.199692123E0,1.489986177E0,2.740966146E0
1.533296750E1,-6.634206294E-1,1.885899541E0,1.240406109E0,2.352732736E0
1.534302850E1,-8.741590324E-1,1.275111088E0,1.384454606E0,2.075277537E0
1.535308950E1,-1.196529626E0,8.293790084E-1,1.511706244E0,2.098763554E0
1.536315150E1,-1.832405265E0,3.098638380E-1,1.993134552E0,2.725125685E0
1.537321250E1,-2.403763458E0,-2.659009624E-1,2.514157720E0,3.488519904E0
1.538327275E1,-2.939437993E0,-7.524466074E-1,2.506092070E0,3.935348660E0
1.539333375E1,-4.395645244E0,-1.139266820E0,2.408805804E0,5.140230676E0
1.540339575E1,-5.678243399E0,-1.871894290E0,1.707217401E0,6.217799256E0
1.541345675E1,-6.188097800E0,-2.887680779E0,1.338220379E0,6.958598167E0
1.542351775E1,-5.806245382E0,-3.544905480E0,1.649669105E0,7.000017746E0
1.543357875E1,-5.121136479E0,-3.518615229E0,2.544230242E0,6.714149201E0
1.544363975E1,-4.084863685E0,-3.653743213E0,4.082045327E0,6.833669940E0
1.545370175E1,-2.838767651E0,-3.696465894E0,5.553978957E0,7.250458202E0
1.546376275E1,-1.669077329E0,-3.640771165E0,6.314923908E0,7.477920685E0
1.547382375E1,-1.571669879E0,-3.604940597E0,6.322866765E0,7.446098780E0
1.548388475E1,-2.783765232E0,-3.344605014E0,5.095695244E0,6.700883642E0
1.549394575E1,-4.574179156E0,-3.414779788E0,4.148943322E0,7.056739094E0
1.550400775E1,-6.144282859E0,-3.753750481E0,4.114899663E0,8.293084695E0
1.551406875E1,-7.006062459E0,-4.517621378E0,5.093123639E0,9.769018502E0
1.552412975E1,-7.158557843E0,-4.725158942E0,5.708559458E0,1.030338432E1
1.553419075E1,-6.864578551E0,-4.119030721E0,5.532058915E0,9.731008612E0
1.554425175E1,-6.786888936E0,-3.813516626E0,3.917498832E0,8.715019655E0
1.555431375E1,-6.659499156E0,-3.134218687E0,1.756732793E0,7.566925789E0
1.556437475E1,-5.090454969E0,-1.550856423E0,2.476320387E0,5.869416504E0
1.557443575E1,-2.168702465E0,-5.022079968E-1,3.647615916E0,4.273240588E0
1.558449675E1,2.961745559E-1,-8.061415887E-1,1.956484205E0,2.136682960E0
1.559455775E1,2.709306203E0,-2.109997004E0,-1.918342817E0,3.933505640E0
1.560461975E1,4.461934835E0,-4.084322233E0,-3.959081891E0,7.229445345E0
1.561468075E1,3.893562962E0,-5.206503489E0,-3.957454610E0,7.611107549E0
1.562474175E1,3.670330302E0,-5.231018525E0,-2.214368634E0,6.763010261E0
1.563480275E1,4.747732118E0,-6.197161569E0,-3.367937744E-2,7.806849946E0
1.564486375E1,6.334965239E0,-8.156468809E0,9.953404572E-1,1.037547448E1
1.565492575E1,6.899584077E0,-9.139074104E0,1.865824149E0,1.160207894E1
1.566498675E1,6.291385356E0,-9.044191920E0,2.648126786E0,1.133099787E1
1.567504775E1,4.823753231E0,-7.617242675E0,2.311671858E0,9.307782119E0
1.568510875E1,2.579507371E0,-5.589710122E0,6.916612923E-1,6.194926382E0
1.569516975E1,1.043603083E0,-3.407901708E0,-3.601579325E0,5.066978891E0
1.570523175E1,1.379284790E0,-2.565076443E0,-9.660866765E0,1.009031171E1
1.571529275E1,-1.499612448E0,-1.474930912E0,-1.225023488E1,1.242950173E1
1.572535375E1,-3.309892434E0,-2.084631783E-1,-2.566028954E0,4.193250459E0
1.573541475E1,-3.254457321E0,4.200803447E-1,7.037843245E-1,3.356079905E0
1.574547575E1,-2.058379831E0,1.458323066E0,-2.595662351E0,3.619543719E0
1.575553775E1,-4.668002556E-1,1.821493045E0,-3.409124361E0,3.893310712E0
1.576559875E1,2.831192583E-1,2.461076696E0,-3.837413320E0,4.567580979E0
1.577565975E1,5.106172431E-1,3.085422503E0,-4.141105714E0,5.189346637E0
1.578572075E1,2.924129690E-1,3.359010800E0,-5.230217457E0,6.222831634E0
1.579578275E1,3.763558162E-1,3.959272510E0,-6.090359251E0,7.273923173E0
1.580584375E1,1.133988173E0,5.102470998E0,-5.746551742E0,7.768139828E0
1.581590475E1,1.614451325E0,6.201473891E0,-5.851151998E0,8.677598239E0
1.582596575E1,2.096102704E0,6.945665984E0,-6.408375278E0,9.680041126E0
1.583602675E1,2.930200562E0,7.211626588E0,-6.720782654E0,1.028409222E1
1.584608875E1,3.725942293E0,7.503171099E0,-6.427034912E0,1.055874047E1
1.585614975E1,4.331927550E0,7.961097547E0,-5.608555698E0,1.065835670E1
1.586621075E1,4.010367234E0,8.285254319E0,-5.105794555E0,1.052604496E1
1.587627175E1,3.323490134E0,8.233362034E0,-4.330757230E0,9.878729434E0
1.588633275E1,2.250971327E0,7.654090074E0,-2.988418949E0,8.519543097E0
1.589639475E1,4.706639129E-1,6.455313216E0,-1.254428902E0,6.592888981E0
1.590645575E1,-3.725800863E-1,5.407882766E0,7.094192863E-1,5.466926710E0
1.591651675E1,-1.124110837E0,4.609019206E0,2.473684462E0,5.350308219E0
1.592657775E1,-9.946667849E-1,2.495744838E0,4.609082356E0,5.334954964E0
1.593663875E1,-1.355680457E0,-1.106877338E0,7.919856550E0,8.110929338E0
1.594670075E1,-3.791173831E0,-5.703421510E0,1.038739851E1,1.244186738E1
1.595676175E1,-6.694295937E0,-9.593363584E0,1.079131248E1,1.591535887E1
1.596682275E1,-7.343606431E0,-1.209414697E1,8.122812821E0,1.631493286E1
1.597688375E1,-5.023638836E0,-1.343039479E1,5.429991673E0,1.533288169E1
1.598694475E1,-3.067406062E0,-1.156031723E1,4.033360240E0,1.262211984E1
1.599700675E1,2.007804851E-1,-6.847139230E0,4.492880639E0,8.192045220E0
1.600706775E1,4.021626340E0,-4.390594127E0,6.468356016E0,8.791497299E0
1.601712875E1,4.245350752E0,-7.997809290E0,6.243294346E0,1.099848538E1
1.602718975E1,1.809417375E0,-1.401180683E1,7.667866114E-1,1.414894638E1
1.603725075E1,1.761648255E0,-1.204763354E1,-5.028153471E0,1.317312437E1
1.604731275E1,2.032611152E0,1.724531007E-1,-5.924448016E0,6.265806609E0
1.605737375E1,8.747553315E0,9.863993189E0,-4.698958738E0,1.399636609E1
1.606743475E1,1.545605623E1,1.543099156E1,-4.432086554E0,2.228561343E1
1.607749575E1,1.322317648E1,1.777161210E1,-3.906192656E0,2.249313082E1
1.608755675E1,8.799463141E0,1.603586029E1,-4.520859566E0,1.884190909E1
1.609761875E1,4.665479336E0,9.591055103E0,-8.865876401E0,1.386934749E1
1.610767975E1,4.071953033E0,1.010176671E-1,-1.450807405E1,1.506901519E1
1.611774075E1,3.957915663E0,-7.288856612E0,-1.367573928E1,1.599432312E1
1.612780175E1,3.633152097E-1,-1.268078642E1,-7.366693577E0,1.466978243E1
1.613786275E1,-4.845627665E0,-1.416667501E1,-2.625541331E0,1.520092943E1
1.614792475E1,-4.192649797E0,-9.812212586E0,-5.413961531E0,1.196531686E1
1.615798575E1,-4.517265575E0,-4.026498533E0,-5.951862102E0,8.487817222E0
1.616804675E1,-7.253687364E0,-2.175843669E0,-5.466826208E0,9.340046297E0
1.617810775E1,-7.882995118E0,-1.821609989E0,-6.344064091E0,1.028139213E1
1.618816875E1,-6.022512839E0,-1.751137007E0,-6.301398128E0,8.890712012E0
1.619823075E1,-4.275948354E0,-1.878819732E0,-3.989196513E0,6.142262346E0
1.620829175E1,-3.261105313E0,-1.242761368E0,-1.150098348E0,3.674505394E0
1.621835275E1,-2.362118564E0,-1.492870170E-1,1.252407519E0,2.677763119E0
1.622841375E1,-7.609971370E-1,8.312097716E-1,2.363654482E0,2.618566179E0
1.623847475E1,1.393852397E0,1.534131047E0,1.918946980E0,2.824666367E0
1.624853675E1,2.625018297E0,2.336849676E0,2.200451969E-1,3.521364417E0
1.625859775E1,2.753474024E0,2.111478689E0,-9.884380384E-1,3.607903991E0
1.626865875E1,2.297755192E0,1.337678635E0,-1.411892665E0,3.010399301E0
1.627871975E1,1.029853574E0,1.401541339E0,-7.951898269E-1,1.912392055E0
1.628878075E1,8.474838336E-2,2.361284605E0,-2.443609893E-1,2.375407243E0
1.629884275E1,-7.385403936E-1,2.587978817E0,-8.744131670E-1,2.829783500E0
1.630890375E1,-1.720369982E0,2.087254259E0,-2.113418210E0,3.432614127E0
1.631896475E1,-2.779982668E0,1.650009997E0,-2.905479704E0,4.346567489E0
1.632902575E1,-3.161552666E0,1.253271153E0,-1.368579415E0,3.665939642E0
1.633908775E1,-2.290228217E0,9.075194442E-1,1.192320946E0,2.736853315E0
1.634914875E1,-1.067335250E0,3.249888307E-1,3.432269980E0,3.609057978E0
1.635920975E1,2.273002941E-1,6.129478294E-1,4.188428400E0,4.239139408E0
1.636927075E1,1.142612524E0,1.223342764E0,4.131432080E0,4.457674498E0
1.637933175E1,1.409616636E0,2.075991352E0,2.551455939E0,3.578643118E0
1.638939388E1,9.749939740E-1,2.245475237E0,1.099919809E0,2.683765242E0
1.639945488E1,8.094435845E-1,2.425082406E0,3.826429617E-1,2.585080120E0
1.640951588E1,9.770523401E-1,2.225640312E0,4.278477129E-1,2.468027500E0
1.641957688E1,7.071018885E-1,1.995731301E0,9.893054728E-1,2.337019860E0
1.642963788E1,-2.870026866E-1,1.532910149E0,1.902812612E0,2.460260129E0
1.643969988E1,-1.585941763E0,7.252085227E-1,2.492955716E0,3.042362056E0
1.644976088E1,-2.141808781E0,1.835885382E-1,2.292325029E0,3.142579139E0
1.645982187E1,-2.244158736E0,9.419045806E-2,1.567273796E0,2.738880689E0
1.646988287E1,-2.667989777E0,2.507724613E-1,1.237829972E0,2.951826438E0
1.647994387E1,-3.905663483E0,1.561767912E-1,1.162660360E0,4.078035991E0
1.649000588E1,-5.683419939E0,-5.616168773E-1,1.169072563E0,5.829528830E0
1.650006688E1,-6.949885919E0,-1.686311851E0,1.570067450E0,7.321862724E0
1.651012788E1,-7.285730106E0,-2.329016161E0,2.377514283E0,8.009915956E0
1.652018888E1,-6.843495830E0,-2.534491412E0,2.686505278E0,7.776528307E0
1.653024988E1,-6.242059414E0,-2.900584999E0,2.352099799E0,7.273862285E0
1.654031188E1,-4.846227297E0,-3.446632496E0,2.398962016E0,6.412504450E0
1.655037288E1,-3.438325356E0,-3.555125243E0,4.074833372E0,6.408218454E0
1.656043388E1,-2.842953088E0,-4.204046897E0,5.444039608E0,7.442711860E0
1.657049488E1,-2.497627349E0,-4.916186308E0,6.632352288E0,8.625260985E0
1.658055587E1,-3.532512306E0,-5.297808931E0,5.871175203E0,8.661184730E0
1.659061787E1,-5.318117480E0,-5.550008698E0,3.994244707E0,8.662503152E0
1.660067887E1,-6.549562147E0,-5.866209748E0,3.505012851E0,9.465426361E0
1.661073988E1,-7.123203823E0,-5.822825747E0,4.421103144E0,1.020742305E1
1.662080088E1,-7.706087608E0,-5.366020795E0,4.793019973E0,1.054281774E1
1.663086188E1,-7.518117751E0,-3.987964797E0,3.544543537E0,9.218988374E0
1.664092388E1,-5.947387227E0,-2.516080869E0,2.463283435E0,6.911573124E0
1.665098488E1,-2.746482800E0,-1.723415358E0,3.637888488E0,4.873146921E0
1.666104588E1,4.140845367E-1,-1.399099542E0,3.296909276E0,3.605351066E0
1.667110688E1,2.396713908E0,-2.193018111E0,1.283626388E0,3.493030589E0
1.668116788E1,4.386358696E0,-4.084371935E0,-1.113989307E0,6.096163456E0
1.669122988E1,5.253054342E0,-6.307697334E0,-2.982644824E0,8.733716032E0
