Time (s),Linear Acceleration x (m/s^2),Linear Acceleration y (m/s^2),Linear Acceleration z (m/s^2),Absolute acceleration (m/s^2)
0.009602624981,-0.2955621332,1.524697734,0.844204039,1.767693586
0.01966362499,-0.6027355941,1.496672907,0.9686585158,1.881919049
0.02972362499,-0.7063725214,1.022116977,0.9541673613,1.566563311
0.039784625,-0.7318428466,0.4651860586,0.8084997708,1.185606976
0.04984562501,-0.6849138978,0.02387856692,0.6337802893,0.9334638121
0.05990562501,-0.6467431279,-0.2127395394,0.5908032542,0.9014340077
0.06996662496,-0.5393834245,-0.288759921,0.5999822134,0.8569103961
0.08002762496,-0.4130285295,-0.3078471333,0.6225115353,0.8080117791
0.09008762497,-0.3138454264,-0.2596654916,0.5922627193,0.7188186474
0.100148625,-0.1381394465,-0.1434922801,0.4823011512,0.5218112125
0.110209625,0.06401750967,-0.01472957477,0.3695387667,0.3753319891
0.120269625,0.2756699786,0.0709547925,0.178975085,0.3362448524
0.130330625,0.2758238335,0.1525732984,-0.1236019528,0.3385776739
0.140391625,0.1638008295,0.2181426591,-0.4279097664,0.5074679297
0.150451625,0.1642862946,0.2129438996,-0.6552196902,0.7082710875
0.160512625,0.2340891856,0.07732065618,-0.7435512382,0.7833547565
0.170573625,0.4554164576,-0.1136359584,-0.6407285357,0.7942608748
0.180633625,0.7055263563,-0.236646173,-0.4220216203,0.8554946514
0.190694625,0.9324360381,-0.3515960008,-0.186543721,1.013831975
0.200755625,1.065486945,-0.3931216107,0.02232233047,1.13591607
0.210815625,0.9515247852,-0.2659815077,0.1797387314,1.004216904
0.220876625,0.6456744761,-0.09220357418,0.2812779701,0.710291718
0.230936625,0.3869604727,0.0999878262,0.3021262175,0.5010151935
0.240997625,0.3020768085,0.2089449888,0.2443919796,0.4411755278
0.251058625,0.2594720218,0.1654061826,0.07905260146,0.3177015095
0.261118625,0.2260051907,0.01347958624,-0.0343886447,0.2290035466
0.271179625,0.1557825427,-0.1099782327,-0.1732313651,0.2576286438
0.281240625,0.110726457,-0.1317237353,-0.2296634281,0.2869787116
0.291300625,0.3287032013,0.006142792404,-0.1408389598,0.3576578548
0.301361625,0.3698446492,0.134350597,0.03978913307,0.3954975633
0.311422625,0.2159462987,0.1797442862,0.2731421542,0.3918513095
0.321482625,0.2311156572,0.1720106126,0.372648316,0.4710295801
0.331543625,0.244489555,0.1107755005,0.3929685599,0.4758893181
0.3416049167,0.04754853442,0.01549102843,0.3406622922,0.3443132766
0.3516649167,-0.1783753069,-0.04415203303,0.2866404516,0.3404848023
0.3617259167,-0.3359765529,-0.1233939381,0.1539542645,0.3896257481
0.3717869166,-0.3817066032,-0.2001003443,0.04150178254,0.4329693715
0.3818469166,-0.3169641119,-0.2794463298,0.0818329525,0.4304104223
0.3919079166,-0.1869677903,-0.3769689699,0.1257449573,0.4391746271
0.4019689166,-0.1733668012,-0.4867856732,0.1021262991,0.5267315449
0.4120289166,-0.2812912725,-0.5512446477,0.08586460769,0.6247945041
0.4220899167,-0.4289341986,-0.5179770604,-0.03226376653,0.6732946847
0.4321509167,-0.4446015937,-0.4324049596,-0.3431263089,0.7087879021
0.4422109167,-0.3980767605,-0.2284135857,-0.5975012398,0.7534225939
0.4522719167,-0.2945167241,0.008191364408,-0.6270238316,0.6927958463
0.4623329167,-0.2839369914,0.2019923571,-0.6359338188,0.7251433991
0.4723929167,-0.2687559385,0.4155643938,-0.8208350569,0.9584851123
0.4824539166,-0.492238348,0.7163619047,-0.9419338167,1.281683379
0.4925139166,-0.8782208738,0.3970484546,-1.238135051,1.569043588
0.5025749166,-1.181316779,0.1964061465,-1.308744857,1.773949776
0.5126359166,-1.249749083,0.1629401924,-1.436270292,1.910836107
0.5226959166,-0.8111851045,-0.02618485495,-1.608714622,1.801851729
0.5327569167,-0.3720499266,-0.5171148884,-1.642512698,1.761725551
0.5428179167,-0.2186881312,-0.7824830963,-1.396495777,1.615643757
0.5528779167,-0.1990650216,-0.7595581372,-0.8834517199,1.181965477
0.5629389167,-0.3301512277,-0.5400729574,-0.2396381932,0.6768346151
0.5729999167,-0.7340603301,-0.4868607734,0.2741525531,0.9225169935
0.5830599167,-1.10690482,-0.7137009099,0.6614300179,1.473803562
0.5931209166,-1.006115341,-0.9318219343,0.959730987,1.673811149
0.6031819166,-0.7644154193,-0.9468748601,1.59431293,2.005676108
0.6132419166,0.2215504894,-0.5622942773,2.005585613,2.094667784
0.6233029166,1.029325644,-0.1782763427,2.113070886,2.357193735
0.6333639167,0.9537897773,-0.217240653,2.013734293,2.238757299
0.6434239167,1.519737687,-0.1717955813,1.977017287,2.499542701
0.6534849167,1.612792324,0.05083598524,2.575549391,3.039266037
0.6635459167,0.3720055608,-0.05273910776,3.651615411,3.670894259
0.6736059167,-1.045751131,-0.3990846743,4.897216187,5.023503795
0.6836669167,-1.314477614,-0.9150967048,5.755644747,5.974336769
0.6937279166,-0.6927927285,-1.530373334,6.175956057,6.400346672
0.7037879166,-0.007983934432,-2.147197721,6.325976899,6.680456985
0.7138489166,0.2990457581,-2.730737126,7.13143261,7.642230347
0.7239099166,0.8377418424,-3.09033738,8.276563602,8.874316964
0.7339699166,1.220022277,-2.890833305,9.487676915,9.993066836
0.7440309167,0.4347406299,-2.392111126,9.906645119,10.20062805
0.7540919167,-0.2590869096,-2.168920712,9.744128777,9.985959578
0.7641519167,-0.2282082023,-2.290887929,9.886413753,10.15093214
0.7742129167,0.1847360542,-2.283803151,9.435485837,9.709700162
0.7842739166,0.5268579577,-1.750892009,8.152786233,8.35530523
0.7943339166,0.663530484,-0.8599249361,6.891695014,6.976761696
0.8043949166,0.7558501254,-0.1552814363,5.496759274,5.5506562
0.8144559166,0.7535255648,0.2100886311,3.749567968,3.830299982
0.8245159166,0.8897222739,0.08332322504,1.531479335,1.773126458
0.8345769166,1.107182709,-0.5859118756,-1.062995739,1.642895681
0.8446379167,0.9330869794,-1.081674816,-3.053087985,3.370759256
0.8546979167,0.9232630724,-1.07810224,-5.037072814,5.233241985
0.8647589167,1.248438137,-0.811033954,-6.597425115,6.763312207
0.8748189167,0.1564106798,-0.1801809271,-6.670097235,6.674363385
0.8848799167,-0.1826988843,0.418451822,-6.874101911,6.889249444
0.8949409166,0.05161541909,1.128529139,-7.417293627,7.502831927
0.9050009166,-0.01207113817,1.478250669,-7.520319228,7.664239822
0.9150619166,-0.05077999815,1.618792005,-7.450884712,7.624876993
0.9251229166,-0.4419531704,0.9739793359,-7.291283791,7.369313243
0.9351829166,-1.470093803,-0.1511398534,-6.79078669,6.949734017
0.9452439166,-1.85153487,-0.5927189483,-6.140586834,6.440986244
0.9553049167,-1.498415523,-0.3678160308,-5.603522415,5.812056535
0.9653649167,-0.6715685052,0.1329906808,-5.111433025,5.157076531
0.9754259167,0.1467959569,0.8636378449,-4.204234593,4.294532325
0.9854869167,0.4059009929,1.883755952,-2.840439954,3.432403128
0.9955469167,0.1056403296,2.574807964,-1.584095505,3.02492223
1.005607917,0.448178701,2.467198731,-0.465098058,2.5503431
1.015668917,1.154842487,1.589111977,0.5974170399,2.053252338
1.025728917,1.333725917,1.383180205,-2.474095522,3.132596519
1.035789917,1.50834775,1.331294791,-4.163870679,4.624421886
1.045850917,1.424410384,0.8292882304,-4.906762351,5.176193648
1.055910917,0.730709437,0.2928202276,-5.86259266,5.9152069
1.065971917,0.2046658503,0.01856059738,-7.086880919,7.089859926
1.076032917,0.427386733,-0.02734063022,-7.806128206,7.817867004
1.086092917,0.718973929,0.3074843866,-8.252364315,8.289329705
1.096153917,0.9393424769,1.137984087,-8.929930894,9.051024133
1.106214917,1.349448641,2.169871762,-9.076436391,9.429265754
1.116274917,1.641500545,2.567133493,-8.470611055,9.001997004
1.126335917,1.967162974,2.165375984,-7.498518469,8.048997612
1.136396917,2.546141989,1.397621073,-6.423963954,7.050070679
1.146456917,2.812644922,0.488466163,-5.641587789,6.322743347
1.156517917,2.155538774,-0.435635327,-5.145262676,5.595520847
1.166578917,1.141356176,-1.053872036,-4.959484355,5.197097773
1.176638917,0.6957196985,-0.921016499,-4.608799936,4.751140299
1.186699917,0.9815546961,-0.01010428101,-2.97804248,3.135648056
1.196760917,1.231294247,0.4413672794,-1.187926179,1.766934975
1.206820917,1.327488253,0.8534660286,-0.06170332789,1.579378557
1.216881917,1.763789213,2.293672374,0.3478730786,2.914258229
1.226942917,1.16034267,3.567726285,-0.1623292315,3.755185313
1.237002917,-0.371227735,4.664521562,-0.7943916088,4.746222652
1.247063917,-1.962563555,5.571259818,0.2070779729,5.910454547
1.257124917,-1.57004333,5.635573343,3.603454819,6.870924945
1.267184917,-0.4532283564,5.28432876,7.668963636,9.324298882
1.277245917,0.2238487376,4.830860521,10.09751578,11.19585399
1.287306917,1.412713029,4.701753415,12.10183489,13.05973395
1.297366917,3.082679282,4.677488055,15.0577135,16.06600578
1.307427917,4.656121452,3.970296265,17.60852039,18.64142457
1.317488917,4.468583412,2.032804402,19.74644253,20.34754344
1.327548917,3.241442881,1.214327527,18.36079509,18.68422703
1.33761025,2.883711689,0.3872689864,16.83132018,17.08095751
1.34767125,2.285298576,-0.1070546249,15.88834088,16.05220939
1.35773125,1.541320491,-0.7625754467,15.01007389,15.10825961
1.36779225,0.9324616928,-1.735746551,14.00568947,14.14360769
1.37785225,0.1730461545,-2.014195346,13.16600007,13.32030351
1.38791325,-0.2142935101,-2.195646142,11.8629083,12.06629094
1.39797425,-0.4225965478,-2.436886765,9.740814575,10.04989918
1.40803425,-0.722662645,-2.528455331,7.001120392,7.478704059
1.41809525,-1.057740554,-2.462830861,4.22723637,5.005384926
1.42815625,-1.236130771,-2.211952565,1.677205397,3.038712125
1.43821625,-1.338879068,-1.909582518,-0.5378555471,2.393405762
1.44827725,-1.544869897,-1.748142795,-2.441067524,3.376601381
1.45833825,-1.692668213,-1.823202186,-3.978722103,4.692485638
1.46839825,-1.653870622,-2.078209055,-4.773004954,5.462217242
1.47845925,-1.757186537,-2.401972894,-5.233121769,6.020194495
1.48852025,-1.888674483,-2.703392329,-5.606151908,6.504180241
1.49858025,-2.006817183,-2.608470384,-5.748547397,6.623988989
1.50864125,-2.173838074,-1.937242626,-5.985722743,6.656377222
1.51870225,-2.242804813,-1.264262457,-6.656790141,7.137323586
1.52876225,-1.687978015,-0.8919445083,-7.211712542,7.46013623
1.53882325,-1.318856155,-0.2486550383,-7.764005449,7.879149161
1.54888425,-1.213618187,0.4074831033,-8.734997004,8.828311517
1.55894425,-0.8738161663,0.5033033265,-9.60036387,9.653178511
1.56900525,-0.6535381772,0.4154193829,-10.16599954,10.19545154
1.57906625,-0.5291888771,0.4810489699,-10.46349301,10.48790422
1.58912625,-0.5492639764,0.581974251,-10.7486395,10.77838745
1.59918725,-0.6299342101,0.6280818853,-11.02913511,11.0649503
1.60924825,-0.6840039249,0.6390632486,-11.19380323,11.23287558
1.61930825,-0.8593418225,0.5847091399,-11.15530165,11.20362031
1.62936925,-1.033825661,0.2393521182,-10.81233205,10.86428135
1.63943025,-1.261229506,-0.2271036632,-10.04648713,10.12789117
1.64949025,-1.354374189,-0.3366524179,-8.930500998,9.03888889
1.65955125,-1.121409058,-0.255708096,-7.873837209,7.957402673
1.66961225,-0.8241773254,-0.2871503288,-7.234307352,7.286763784
1.67967225,-0.288829576,-0.3203907265,-6.92551414,6.938934993
1.68973325,0.5054272545,-0.1309877171,-6.762779111,6.782904673
1.69979425,1.206770951,0.1299404807,-6.522245125,6.634219029
1.70985425,1.702505715,0.3059690076,-6.39416362,6.624007182
1.71991525,1.852779157,0.2328060141,-6.365598217,6.633839756
1.72997625,1.607868676,-0.05340437472,-6.272250343,6.475277451
1.74003625,0.9536225469,-0.4648855117,-6.170554984,6.261091223
1.75009725,0.1298574411,-0.6507416001,-6.021374971,6.057828334
1.76015825,-0.2398470119,-0.249778727,-5.135427074,5.147089201
1.77021825,-0.07444282109,0.9538372859,-3.715393916,3.83659996
1.78027925,0.4944482666,2.810291418,-1.744740738,3.34459821
1.79034025,1.463476217,4.682735346,0.5751104969,4.93968876
1.80040025,3.277859632,6.334116808,3.673993875,8.022694716
1.81046125,4.872699396,7.069657946,6.781023594,10.94100287
1.82052225,5.276850756,6.218902686,9.400823543,12.44569756
1.83058225,4.833443821,3.780860219,11.30631886,12.86428891
1.84064325,4.108653667,1.085239132,12.79362131,13.48093191
1.85070425,3.723413372,-1.252658365,16.92944348,17.37926974
1.86076425,3.637097944,-2.906028757,23.27089854,23.732008
1.87082525,3.262949817,-3.789242495,26.78801279,27.25073998
1.88088625,2.000904917,-3.894982958,26.04390548,26.40945902
1.89094625,0.3964814208,-3.128346328,22.36124954,22.5824983
1.90100725,-0.8093705674,-1.906717383,17.02290537,17.14846813
1.91106825,-1.61646803,-0.4816749144,12.2938095,12.40897787
1.92112825,-2.164917562,0.9034714168,9.426201628,9.713722551
1.93118925,-1.978306306,1.54693221,8.525992958,8.888152284
1.94125025,-1.342411809,1.517843628,8.626825268,8.861604423
1.95131025,-1.047174051,1.323883883,8.584261631,8.748645026
1.96137125,-1.070848988,1.039471367,7.863259011,8.003627962
1.97143225,-0.8493067579,0.4600805622,6.437616618,6.509677705
1.98149225,-0.4714186057,-0.05941575095,4.599685296,4.624161606
1.99155325,-0.3616412249,-0.3636343946,2.684483603,2.733032485
2.00161425,-0.414704707,-0.5178291258,0.688963387,0.9564504933
2.01167425,-0.4255827208,-0.359283189,-1.16446715,1.290809361
2.02173525,-0.6483052115,-0.351597755,-2.894237262,2.986725625
2.03179625,-0.9409718035,-0.6207873376,-4.548753709,4.686359478
2.04185625,-1.182582847,-1.080407285,-5.852885113,6.06811719
2.05191725,-1.709032523,-1.483752899,-6.776666833,7.144615329
2.06197725,-2.300736102,-1.348888185,-7.606677926,8.060672119
2.07203825,-2.699567081,-0.7223001176,-8.675923169,9.114879193
2.08209925,-2.449872407,0.3566700684,-10.09166389,10.39089834
2.09215925,-1.117413436,2.692456867,-11.67847425,12.03680596
2.10222025,-0.3511859648,2.652891682,-12.76876363,13.04616765
2.11228125,-0.3352714518,1.853920241,-13.36775707,13.49986505
2.12234125,-0.806230174,0.8583906998,-13.59771052,13.64861067
2.13240225,-1.515326109,0.2754421565,-13.65522257,13.74180428
2.14246325,-2.385000035,0.236275021,-13.91137505,14.11631705
2.15252325,-2.818847649,0.5334448461,-14.21319897,14.4998445
2.16258425,-2.844522773,0.4066766261,-14.20193957,14.48971302
2.17264525,-2.619450578,-0.08151194036,-13.27385313,13.53009026
2.18270525,-2.05102608,-0.2118849689,-11.85041397,12.02846268
2.19276625,-1.35804858,-0.08036910206,-10.52776209,10.61529697
2.20282725,-0.6169788998,-0.07751478374,-8.859316995,8.881113056
2.21288725,0.138193314,-0.04819699064,-6.984568094,6.986101331
2.22294825,0.5066550236,-0.2408987068,-5.633613941,5.661478388
2.23300925,0.4195823812,-0.615979026,-4.828509648,4.885691861
2.24306925,0.1568333239,-0.9188395076,-4.389530518,4.487409152
2.25313025,-0.1463757979,-1.346401657,-4.256089455,4.466376691
2.26319125,-0.427408989,-2.02558426,-4.427773647,4.887826665
2.27325125,-0.7396327997,-2.140910795,-4.540752963,5.074346577
2.28331225,-0.6405955115,-1.455741228,-4.062160116,4.362417901
2.29337325,0.6154423247,-0.7210758568,-3.29344597,3.427171721
2.30343325,2.825683336,0.3859830375,-1.819196844,3.382742434
2.31349425,4.565879619,2.373284554,0.1323195666,5.147547448
2.32355525,5.449733042,4.47599008,1.45696008,7.201167273
2.33361525,5.536091155,5.949251904,1.594975419,8.281657448
2.343675625,4.712792081,6.326870939,2.090601205,8.161514472
2.353736625,3.656685532,5.550154878,5.979804191,8.940560744
2.363796625,3.323303608,3.32333986,13.19028355,14.00258958
2.373857625,4.067948275,0.2054066925,20.2167528,20.62298448
2.383918625,4.614254803,-2.21015133,24.74964535,25.27293139
2.393978625,4.27303761,-2.844986165,26.31374981,26.80981584
2.404039625,4.393323022,-2.750767055,25.39649007,25.92006394
2.414100625,3.74397686,-1.934576295,21.97869429,22.37907395
2.424160625,1.910638818,-0.6520401936,16.69142906,16.8130753
2.434221625,-0.310066444,0.5243524258,11.55481617,11.57086269
2.444282625,-1.598889838,1.499389815,7.968648641,8.264622175
2.454342625,-2.230057152,1.894177152,5.45073467,6.186402058
2.464403625,-2.143552128,2.034238432,3.819050431,4.828880607
2.474464625,-1.786713806,1.55993364,4.32685012,4.934305539
2.484524625,-1.533317115,0.4345603895,6.957204294,7.137408192
2.494585625,-1.321550844,-0.6905242281,9.232852918,9.352480599
2.504646625,-1.792093537,-1.153251606,9.427096252,9.664974509
2.514706625,-2.101598356,-1.471255645,8.275288909,8.663816443
2.524767625,-2.588333743,-1.467426303,6.664019054,7.2980793
2.534828625,-3.199891397,-1.087888944,4.767538977,5.843991376
2.544888625,-3.266474519,-0.6555635065,2.211798783,3.998959008
2.554949625,-2.900302579,-0.4256498907,-0.8518364096,3.052631348
2.565010625,-2.257461152,-0.2355992839,-4.230219035,4.800665678
2.575070625,-1.589254796,-0.4029648501,-7.397287379,7.57680487
2.585131625,-1.850218077,-0.6586492284,-10.37005099,10.55438692
2.595192625,-2.163533818,-0.7152713259,-12.43607109,12.64311496
2.605252625,-2.32094291,-0.6216590843,-13.39794742,13.61169464
2.615313625,-2.82922938,-0.3394655865,-13.60471315,13.8999279
2.625374625,-3.264892555,0.4945724834,-13.30865693,13.71220167
2.635434625,-2.425486448,0.9723738366,-11.98524024,12.26680394
2.645495625,-1.456272155,0.8647420185,-10.66280003,10.79647219
2.655556625,-0.8821369004,0.5734025252,-9.669693722,9.726763729
2.665616625,-0.5471589057,0.3088756585,-8.89361033,8.915777685
2.675677625,-0.2150477644,0.06464564681,-8.435352345,8.4383407
2.685738625,0.3696350996,0.1696744307,-8.323164741,8.333096113
2.695798625,0.8612312771,0.4640158115,-8.655104742,8.710216305
2.705859625,1.104072867,0.391971902,-9.239650306,9.313632838
2.715920625,1.063845924,-0.02750018612,-9.809647413,9.867203595
2.725980625,0.5789537986,-0.4767110668,-10.27377893,10.3011152
2.736041625,-0.01669928245,-0.9356901598,-10.40923202,10.45121553
2.746102625,-0.4305337775,-1.525035265,-10.07162548,10.19552508
2.756162625,-0.8132529724,-2.343128562,-9.558490205,9.875037562
2.766223625,-1.456295836,-3.146330025,-8.854280788,9.508863153
2.776284625,-1.903099126,-3.667912186,-7.49081944,8.554983458
2.786344625,-2.081229873,-3.65401657,-6.428176873,7.681459028
2.796405625,-1.394960883,-3.200905597,-5.78747465,6.759184517
2.806466625,0.1773415922,-2.753588921,-4.978607674,5.692120551
2.816526625,1.722712084,-2.254420892,-3.821844231,4.759899559
2.826587625,2.775526505,-1.321829464,-2.347852966,3.868228802
2.836648625,3.633811224,-0.02589132473,-1.380870847,3.88742314
2.846708625,3.856598619,0.8306958014,-1.304568776,4.155154403
2.856769625,2.689253762,1.041025703,-1.87052838,3.437251334
2.866830625,0.6395773651,0.4997812562,-2.450403773,2.581340575
2.876890625,-0.3626284907,0.2059384967,-1.74255388,1.791760059
2.886951625,0.02634949062,0.6200859641,1.529489527,1.650617797
2.897012625,1.807028788,0.5686174563,6.575358893,6.842808153
2.907072625,3.77971855,-0.3132376814,11.73225928,12.33005669
2.917133625,5.129123191,-0.7158177482,15.31163936,16.16374337
2.927194625,6.006366338,-0.3181684922,17.11332438,18.1395573
2.937254625,5.768747188,-0.5963870528,18.25179832,19.15103818
2.947315625,4.627990497,-1.932960271,19.25903267,19.90138113
2.957376625,3.078126347,-3.357322708,20.32000995,20.82424745
2.967436625,1.608866357,-4.585693493,20.83625828,21.39548305
2.977497625,0.05939733222,-4.867348609,19.94604542,20.5314232
2.987558625,-0.7857465005,-3.938393272,17.68814076,18.13832028
2.997618625,-0.5761325902,-2.58460322,15.34133035,15.56818935
3.007679625,-0.0780339434,-1.333100118,14.49180827,14.55320419
3.017740625,0.6687396222,-0.5204129373,15.13102705,15.15473596
3.027800625,0.8016092657,-0.01667070419,15.79009363,15.81043681
3.037861625,-0.06809206881,0.201955008,15.35826506,15.35974375
3.047922625,-1.303701488,0.3051424306,13.26440871,13.33181487
3.057982625,-2.265350654,0.664321393,9.84208952,10.12125796
3.068043625,-2.458634899,1.183555312,6.182690295,6.758058007
3.078104625,-2.027902389,1.525249273,3.379074351,4.225744539
3.088164625,-1.250334097,1.791744312,1.496121807,2.648030116
3.098225625,-0.7100682541,2.1177241,-0.006281079054,2.233605099
3.108286625,-0.5205016688,2.219665042,-1.513835946,2.736701328
3.118346625,-0.7661140354,2.072774507,-2.825699708,3.587186044
3.128407625,-1.206893523,1.878409696,-4.027519457,4.604989461
3.138468625,-1.530790094,1.688002281,-5.150118204,5.63173042
3.148528625,-1.766623066,1.446479092,-6.116348371,6.528627437
3.158589625,-2.13496403,1.172884509,-6.867686346,7.286895445
3.168650625,-2.301350206,1.074340068,-7.802407038,8.205362572
3.178710625,-2.329268761,0.9551064241,-9.054656682,9.398113048
3.188771625,-2.264901003,0.6566980125,-10.32386501,10.58976947
3.198832625,-1.979664175,0.4352010982,-11.36127567,11.54066961
3.208892625,-1.707875505,0.3001859652,-12.22029597,12.3427138
3.218953625,-1.469519607,0.2412800914,-12.77190709,12.8584336
3.229014625,-1.200865775,0.2954853154,-12.94675053,13.00568105
3.239074625,-1.021843108,0.5111424693,-12.73849142,12.78962836
3.249135625,-0.803721353,0.6294035022,-12.1801981,12.22290238
3.259196625,-0.6485073059,0.5728360031,-11.4777791,11.51034821
3.269256625,-0.4112535341,0.4355829944,-10.78476593,10.80139057
3.279317625,0.01655310206,0.2696573599,-10.15127625,10.15487068
3.289378625,0.478181605,0.1629651162,-9.608840579,9.622111647
3.299438625,0.9802558833,0.09198371887,-9.031039778,9.084549635
3.309499625,1.411313498,0.03283255443,-8.405303503,8.523028262
3.319560625,1.744249572,0.02238394551,-7.833300217,8.025179119
3.329620625,1.762343489,-0.02703335904,-7.195661935,7.408382823
3.339681625,1.237933906,-0.3495562727,-6.568323523,6.693096731
3.349742625,0.5060250227,-0.8771368001,-6.06167632,6.14567735
3.359802625,-0.07456332855,-1.440157667,-5.540882948,5.725469207
3.369863625,-0.4022745498,-1.973087958,-5.044059652,5.431154452
3.379924625,-0.6939517198,-2.46569892,-4.669896322,5.32627185
3.389984625,-0.5238679109,-2.788654089,-4.333998926,5.180210026
3.400045625,-0.1024120818,-2.90842787,-4.286392651,5.180984739
3.410106625,0.5213845984,-2.678104876,-4.265136852,5.063149217
3.420166625,1.459326302,-1.970275886,-4.374717182,5.01495471
3.430227625,2.47753193,-1.227892337,-4.330164907,5.137724416
3.440288625,3.400038665,-0.4901801281,-3.616113456,4.98766639
3.450348625,4.130515237,0.5049113108,-2.139990297,4.679278793
3.460409625,4.366052485,1.618595685,-0.6478393346,4.701272392
3.470470625,4.354956224,2.47577835,0.7407346344,5.063971757
3.480530625,3.792081611,2.614974827,1.594643297,4.87451162
3.490591625,2.87003856,1.672221816,2.380831262,4.086784144
3.500652625,2.118587587,0.510629303,4.238463609,4.7658923
3.510712625,2.581707678,-0.1659622528,7.311282438,7.755488953
3.520773625,3.858110417,-0.2025493044,10.75203088,11.42506938
3.530834625,4.619374917,0.2027026476,13.7495826,14.50623089
3.540895625,4.907480389,-0.04096632376,16.21629484,16.9426462
3.550955625,4.214952539,-0.5870592821,17.94244552,18.44022274
3.561016625,2.666448451,-1.196731647,18.48479583,18.71442734
3.571076625,1.089706112,-1.806917837,17.68845885,17.81387066
3.581137625,-0.04886759318,-1.92823996,16.52295206,16.63515682
3.591198625,-0.5397990154,-1.542222132,15.62546293,15.71066275
3.601259625,-0.277099696,-1.092240296,15.04052502,15.08267768
3.611319625,0.1693054714,-0.7322437464,14.52658283,14.54601162
3.621380625,0.1324039127,-0.5549583605,13.79992946,13.81171831
3.631440625,-0.5067818351,-0.4192729904,12.90317474,12.91992787
3.641501625,-1.411539347,-0.2280609986,11.79645586,11.88279538
3.651562625,-2.325742451,-0.1112472247,10.28628846,10.54652474
3.661623625,-3.13267853,-0.0288757436,8.579510184,9.133592041
3.671683625,-3.822862816,-0.05409756213,6.935819857,7.91977296
3.681744625,-4.368722032,-0.3510704823,5.243916898,6.834299314
3.691805625,-4.506857239,-0.7257102138,3.496328566,5.750020081
3.701865625,-4.150480555,-1.110644992,2.062551527,4.765935368
3.711926625,-3.482571822,-1.394612389,1.064358725,3.899501212
3.721987625,-2.650875562,-1.580207984,0.4891511643,3.124654761
3.732047625,-1.922962117,-1.64378549,0.1691850919,2.53543638
3.742108625,-1.532211406,-1.633872998,-0.3277779526,2.263769236
3.752169625,-1.43535491,-1.646740819,-1.092661588,2.442520909
3.762229625,-1.494658541,-1.745433487,-2.194747717,3.177650037
3.772290625,-1.473790998,-1.743880467,-3.491626235,4.171885995
3.782351625,-1.283464128,-1.667597837,-4.847430654,5.284481683
3.792411625,-1.029446462,-1.491141002,-6.274388085,6.530789183
3.802472625,-0.7758106193,-1.200664192,-7.667362669,7.799482477
3.812533625,-0.8728375617,-0.921625852,-8.98324873,9.072485733
3.822593625,-1.199953317,-0.8329469794,-10.06048887,10.1659788
3.832654625,-1.61773556,-0.8614691126,-10.96808901,11.12016969
3.842715625,-2.147034876,-0.6895712051,-11.61264864,11.82957631
3.852775625,-2.628633923,-0.3435604647,-12.1128908,12.39959167
3.862836625,-3.071946717,-0.02364467829,-12.46590826,12.83885838
3.872897625,-3.329447277,0.0487444362,-12.73142331,13.15966316
3.882957625,-3.328910503,-0.08956004798,-12.52492538,12.96007029
3.893018625,-3.254007086,-0.2571412486,-11.75182757,12.19672641
3.903079625,-3.042989259,-0.3880609918,-10.66782747,11.10013143
3.913139625,-2.893019872,-0.5283196154,-9.644175303,10.08259901
3.923200625,-2.734986005,-0.7026569813,-8.73821765,9.183154304
3.933261625,-2.490015151,-0.8489458385,-7.929504456,8.35451527
3.943321625,-2.23948798,-0.9629868628,-7.134988886,7.539941413
3.953382625,-1.956839423,-1.125170937,-6.20378588,6.601680801
3.963443625,-1.787491925,-1.280614488,-5.213251176,5.658011017
3.973503625,-1.762983759,-1.446395915,-4.511785272,5.055331762
3.983564625,-1.765836177,-1.750287407,-4.251913959,4.925490404
3.993625625,-1.920822621,-2.103572815,-4.278358576,5.139934847
4.003685625,-2.009743276,-2.377534018,-4.443147731,5.425246336
4.013746625,-1.977723923,-2.476200227,-4.503596832,5.506845186
4.023807625,-1.756491303,-2.44368006,-4.310874943,5.257421108
4.033867625,-1.497438892,-2.455974416,-4.030423184,4.951610304
4.043928625,-1.081296939,-2.402291713,-3.824346839,4.643903239
4.053989625,-0.2956179741,-2.129099565,-3.409987995,4.030939478
4.064049625,0.5065138865,-1.619769075,-2.522785871,3.040502709
4.074110625,1.261651382,-0.8663667405,-1.463393186,2.117516271
4.084171625,1.807191048,0.1631259146,-0.4492790008,1.869331744
4.094231625,2.211597054,1.328612819,0.6811094069,2.66838595
4.104292625,2.907252287,2.466161435,1.941417099,4.278220242
4.114353625,4.111188143,3.303229532,2.063340901,5.663088288
4.124413625,5.881679142,3.352658092,0.9677603835,6.838934564
4.134474625,6.892661558,3.318928721,0.6502811319,7.677690848
4.144535625,7.008534662,3.389745519,1.541254125,7.936333981
4.154595625,6.67339448,3.01795382,2.97744548,7.906163465
4.164656625,5.830766265,2.74640971,4.54785733,7.888194206
4.174717625,5.064383989,2.343450013,6.544760998,8.600792968
4.184777625,4.084226924,1.565559831,9.190965219,10.17868994
4.194838625,3.150851092,0.9565305135,11.57065978,12.03008649
4.204899625,2.616434585,0.7820674324,12.81891169,13.10655776
4.214959625,2.391812333,0.7947705084,13.20657741,13.4449289
4.225020625,2.216089177,1.206652326,13.02974591,13.27182503
4.235081625,1.952234156,1.963635934,12.88315504,13.17735816
4.245141625,1.952226701,2.466807844,13.17210807,13.54255371
4.255202625,2.366334992,2.673041187,13.6537748,14.11276928
4.265263625,2.825772506,2.520463357,14.37796649,14.86820925
4.275323625,2.957897068,1.834079615,14.75758176,15.16242799
4.285384625,2.527625611,0.9094126265,14.42576397,14.67373806
4.295445625,1.60743759,0.2245953539,13.47053475,13.56796246
4.305505625,0.2868006653,-0.1626460044,11.71581574,11.72045421
4.315566625,-0.9204388672,-0.6054819582,9.371451225,9.435990365
4.325627625,-1.635470896,-0.9868806325,7.004804138,7.260577074
4.335687625,-2.099704151,-0.8936668056,4.923762546,5.426862398
4.345748625,-2.566779152,-0.7707874956,3.278430905,4.234451296
4.355809625,-2.870173923,-1.035585892,1.877874237,3.582840792
4.365870625,-3.020841468,-1.248830485,0.8211122149,3.370353991
4.375930625,-3.040954135,-1.086912459,-0.2070428896,3.235992507
4.385991625,-2.794162458,-0.8586772133,-1.488250285,3.28017672
4.396052625,-2.4278879,-0.8436288191,-2.899000989,3.874345877
4.406112625,-2.040813918,-0.9028407215,-4.131287069,4.695484604
4.416173625,-1.864006396,-0.8610432161,-4.952298712,5.36107991
4.426234625,-1.869444599,-0.677573084,-5.305375228,5.665768677
4.436294625,-1.682824572,-0.3461597713,-5.209138829,5.485148354
4.446355625,-1.521477088,-0.0650913828,-5.118224566,5.339976791
4.456416625,-1.495920078,0.08507207243,-5.222619,5.433301331
4.466476625,-1.616210752,0.1970879684,-5.637910475,5.868306007
4.476537625,-1.81104027,0.1819996852,-6.137284911,6.401504263
4.486598625,-2.414049295,0.05418077532,-6.832180299,7.246327151
4.496658625,-3.204356331,0.1594037599,-7.917277343,8.542633645
4.506719625,-3.525858175,0.4369488309,-9.008318083,9.68361476
4.516780625,-3.668315936,0.7447502097,-9.635748881,10.3372555
4.526840625,-3.53038889,0.9298747384,-9.756191583,10.4168895
4.536901625,-3.16843747,0.9097691604,-9.707008898,10.25147295
4.546962625,-2.713897144,0.9287152355,-9.499318721,9.922943407
4.557022625,-2.148164704,1.02649413,-9.207756084,9.510576948
4.567083625,-1.732640803,1.148588159,-8.697531554,8.942502672
4.577144625,-1.478769025,1.151422085,-8.037142341,8.252768484
4.587204625,-1.412054925,0.9843776587,-7.333572609,7.532873668
4.597265625,-1.579220681,0.5532221029,-6.260833654,6.480588762
4.607326625,-1.960529893,-0.06207659952,-5.145573748,5.506764945
4.617386625,-2.323514223,-0.5612419246,-4.405310399,5.012032577
4.627447625,-2.53254312,-1.067138784,-4.153229331,4.980147961
4.637508625,-2.598565494,-1.595855133,-4.364744171,5.324498841
4.647568625,-2.403337488,-1.92464056,-4.696778896,5.616048822
4.657629625,-2.030300624,-2.017195991,-4.940787299,5.709866848
4.667690625,-1.63387022,-2.052912831,-5.086710413,5.723513415
4.677750625,-1.301451625,-2.066744712,-5.097748201,5.652631844
4.687811625,-0.9656679574,-1.973219082,-4.853515266,5.327543391
4.697872625,-1.006326279,-1.696198031,-4.634095575,5.036330226
4.707932625,-0.8929894057,-1.573430768,-4.594559042,4.937923374
4.717993625,-0.6799838179,-1.460429817,-4.02755454,4.337790776
4.728054625,-0.4155119151,-0.7728247386,-2.414318851,2.56882147
4.738114625,0.5592385224,0.4516605717,-0.3688727689,0.8079678933
4.748175625,1.879685705,1.723074465,1.207506166,2.821395949
4.758236625,2.837673929,3.17350379,1.865089885,4.647803773
4.768296625,3.647869685,4.830086643,1.955387852,6.360835783
4.778357625,4.523295809,6.057347041,2.373750869,7.923783903
4.788418625,5.326357377,5.905379661,3.696010981,8.769497649
4.798478625,5.7317922,4.923614611,4.847455797,8.977374358
4.808539625,6.341993008,4.051440124,5.049669471,9.062792293
4.818600625,5.954829563,4.036722682,4.4132363,8.439892166
4.828660625,5.499829647,3.998767528,4.514557437,8.162076742
4.838721625,5.012383531,2.718954401,6.392551543,8.566295402
4.848782625,3.402212952,1.664646163,8.68669257,9.476535635
4.858842625,1.819067474,0.8547667417,10.50548303,10.69601825
4.868903625,0.8675863235,0.01917594373,11.56546512,11.59797642
4.878964625,0.4403203355,-0.1310495514,11.36302632,11.37230949
4.889025625,0.3843281293,0.600801993,10.08653588,10.11171979
4.899085625,0.6079721412,1.525926234,8.269414212,8.43097221
4.909146625,0.784958442,2.286747224,6.7529745,7.172728715
4.919207625,0.9538152127,2.596857814,5.979069196,6.588072739
4.929267625,1.312073677,2.332123079,6.369352714,6.908617039
4.939328625,1.772024431,1.762108431,6.913680544,7.351467566
4.949389625,2.008875549,1.055401668,6.687527785,7.062045137
4.959449625,1.650211142,0.1347832909,5.962479476,6.188095413
4.969510625,0.5395901236,-0.7128899011,5.424772448,5.497956495
4.979571625,-0.7179541746,-1.328097387,4.897123216,5.124560143
4.989631625,-1.521376223,-1.984390041,4.058453566,4.766910404
4.999692625,-1.788372954,-2.416187037,2.520171581,3.922690711
5.009753625,-1.572076261,-2.288931451,0.0863066572,2.778143228
5.019813625,-1.111461555,-1.929915334,-3.215525975,3.911461016
5.029874625,-0.178101511,-1.801028375,-6.441569921,6.690982469
5.039935625,0.5943671322,-1.76545143,-8.102301373,8.313686221
5.049995625,0.5383379424,-1.879388666,-7.521525509,7.771438443
5.060056625,-0.4292134032,-2.317575791,-4.514411257,5.092670291
5.070117625,-1.461153995,-2.583028857,-0.6555167288,3.039195824
5.080177625,-2.214552529,-2.541422994,2.249351941,4.052487864
5.090238625,-2.910070645,-2.442387387,3.504295982,5.168545021
5.100299625,-3.586458718,-2.198985487,3.380322146,5.39673986
5.110359625,-4.107979483,-1.815129666,2.433678398,5.108128981
5.120420625,-4.300973852,-1.187746012,1.130042837,4.602837547
5.130481625,-4.19518398,-0.5229656124,-0.3718788224,4.243978737
5.140541625,-3.881313338,0.1574853981,-2.033469231,4.384562919
5.150602625,-3.245282747,0.9084427927,-3.943412522,5.187256571
5.160663625,-2.571521536,1.630444337,-5.980690629,6.711164738
5.170723625,-2.362353476,2.583942777,-7.613016892,8.379468982
5.180784625,-2.390861284,3.554903341,-7.749494998,8.854842075
5.190845625,-2.371287145,3.951522025,-5.910476094,7.494748608
5.200905625,-2.229796805,3.738093392,-3.411525228,5.530265851
5.210966625,-1.91522245,3.361624213,-1.925770535,4.321711065
5.221027625,-1.703502958,2.964584821,-1.274223481,3.648880783
5.231087625,-1.580847377,2.933688134,-1.198123139,3.541342055
5.241148625,-1.338321536,3.181397823,-1.927792502,3.953325255
5.251209625,-0.928051942,3.288629327,-3.393774835,4.81602231
5.261269625,-1.018078013,3.262443448,-4.557524532,5.696582305
5.271330625,-1.187337657,3.188191411,-5.30483436,6.302031639
5.281391625,-1.38957969,3.028092892,-5.460601262,6.396752646
5.291452625,-1.639101871,2.818777482,-4.969287797,5.943566492
5.301512625,-1.746719436,2.591920425,-4.324477905,5.33574638
5.311573625,-1.580293353,2.223947397,-4.045711899,4.879657147
5.321634625,-1.271900382,1.556292872,-4.064489062,4.534297015
5.331694625,-0.9060963781,0.8913701655,-3.969985194,4.168492996
5.341756,-0.3836581846,0.2960450767,-3.418309752,3.452488646
5.351817,-0.2552740864,-0.2109693315,-2.126424172,2.152057777
5.361877,-0.4353351456,-0.5123334009,-0.7755963188,1.02642674
5.371938,0.04285146609,-0.7256245521,-0.008927528858,0.72694356
5.381999,0.9912232134,-0.8398787805,0.5157805538,1.397837403
5.392059,1.945744477,-0.6458217528,0.8441245168,2.217104758
5.40212,2.51006613,0.02264597386,1.21217926,2.787529978
5.412181,2.112636584,0.9153425071,1.861502033,2.960789601
5.422241,1.629431891,1.557065873,2.356082922,3.260464562
5.432302,1.580341592,1.514508376,2.856281816,3.598549844
5.442363,1.833692091,1.266950129,3.406313605,4.07069548
5.452423,2.046972644,1.434136789,3.956958182,4.680209759
5.462484,2.24162733,1.756985685,4.111778419,5.001861009
5.472545,2.499178907,1.628501892,3.783738511,4.818152213
5.482605,2.783623145,0.9948742148,3.949063856,4.932893457
5.492666,3.282343862,0.07373382792,5.720069118,6.595332335
5.502727,2.887731942,-0.9644442813,9.059268966,9.557170226
5.512787,1.58005771,-2.410913433,11.60591148,11.95852278
5.522848,0.4764079252,-3.876455179,12.66409028,13.25266207
5.532909,-0.51409027,-4.653458045,13.07464785,13.88759795
5.542969,-1.443055108,-4.286436505,12.76686094,13.54432295
5.55303,-1.885278274,-3.361668359,11.20508367,11.84942988
5.563091,-1.950432629,-2.469273908,8.788266308,9.334619744
5.573151,-1.462217019,-1.712046909,6.774774674,7.139100442
5.583212,-1.44450361,-1.157339467,6.197930478,6.468413061
5.593273,-2.04671142,-0.9106754058,6.820346704,7.178822082
5.603333,-2.373553818,-1.087628231,7.81347991,8.238152778
5.613394,-2.392814254,-1.371083047,9.09258757,9.501609205
5.623455,-2.043790736,-1.848841935,10.0937911,10.46326507
5.633516,-1.463128892,-2.304185521,10.16900969,10.52894938
5.643576,-0.7088990302,-2.32428284,9.538561724,9.843220425
5.653637,0.088477838,-1.852132455,8.508099893,8.707811824
5.663698,0.9697855666,-1.35593715,6.834450772,7.034825297
5.673758,1.766385084,-0.918825255,3.90532142,4.383593447
5.683819,1.863580719,-0.8585041358,0.711834771,2.171789858
5.69388,1.214004907,-1.073026711,-1.399925169,2.141257741
5.70394,0.4087232977,-1.323660812,-2.340415308,2.71968316
5.714001,-0.3162459277,-1.297480196,-2.568688268,2.895103757
5.724062,-0.8099088036,-0.9370377968,-2.360006404,2.66526215
5.734122,-1.031069357,-0.5107219814,-1.845870087,2.175126971
5.744183,-1.103293434,0.2324794471,-1.581549042,1.942318323
5.754244,-0.9275741514,1.024648822,-1.809380538,2.276874381
5.764304,-0.4212142294,1.681218049,-2.582265503,3.10998564
5.774365,0.3573479068,2.144091388,-3.85636093,4.426775918
5.784426,0.6984877704,2.498835383,-5.503251438,6.084228778
5.794486,0.4427333352,2.759882572,-7.658032851,8.152204105
5.804547,-0.3563335611,2.87754697,-9.808311324,10.22791382
5.814608,-1.17220382,2.954143156,-11.36809235,11.80400556
5.824668,-1.592781398,2.905281775,-12.21283141,12.65428251
5.834729,-1.58833269,2.878565847,-12.62497358,13.04603004
5.84479,-1.434968994,2.890183095,-12.71445936,13.11753678
5.85485,-1.102413282,2.900159322,-12.3750168,12.75802806
5.864911,-0.2165420569,2.861818252,-11.76748174,12.11241184
5.874972,1.123992358,2.892822821,-11.10614294,11.53161713
5.885032,2.285878327,3.158595729,-10.33101264,11.04227282
5.895093,2.823643827,3.222021646,-9.442531148,10.36898174
5.905154,2.75815355,2.817920865,-8.753291187,9.600426846
5.915214,2.353024536,2.173636345,-8.5680321,9.147272462
5.925275,1.741923842,1.483399727,-8.642608073,8.940327048
5.935336,1.167173607,0.8847090174,-8.683266102,8.805913608
5.945397,0.6533368137,0.2352160902,-8.781633226,8.809044087
5.955457,0.2674368797,-0.1148313486,-8.930647763,8.93538909
5.965518,0.5265305136,-0.2409723086,-8.744723847,8.763874554
5.975579,1.160041246,-0.2310262679,-8.453632495,8.535980974
5.985639,1.785958346,-0.02417308386,-8.496583802,8.682290473
5.9957,2.218843362,0.1339866352,-8.820776827,9.096555508
6.005761,2.532402787,0.1285452254,-8.982457602,9.333495182
6.015821,2.386019205,0.162921189,-9.148512679,9.455946024
6.025882,1.49430303,-0.003789178468,-9.185177645,9.30593597
6.035943,0.1680258814,-0.3037771788,-8.765934622,8.772805883
6.046003,-0.8991137794,-0.0386893449,-7.710950738,7.763289492
6.056064,-1.191595892,0.5897784566,-5.835320662,5.98487315
6.066125,-0.4753843336,1.494173076,-3.612535545,3.938141251
6.076185,1.547373529,2.610434172,-1.25834829,3.28514411
6.086246,3.366841683,3.520298642,1.123847712,4.999115835
6.096307,3.541886562,3.033239611,4.006496378,6.14796846
6.106367,1.578092753,0.9151206784,7.699334659,7.912494979
6.116428,-1.31223126,-1.183134678,10.62827339,10.77413355
6.126489,-3.035436703,-2.202676834,11.68884838,12.27578257
6.136549,-2.664280596,-1.705182278,10.6482545,11.10816643
6.14661,-0.8080041461,-1.250923934,9.897516446,10.00892168
6.156671,1.297664676,-1.798623561,12.90633458,13.09551269
6.166731,2.33325013,-2.4899023,18.26562347,18.58162185
6.176792,1.371594532,-3.372951731,22.70547513,22.99557948
6.186853,-1.21442883,-4.599400829,24.20730908,24.67028857
6.196914,-3.554381477,-5.199654061,22.13963305,23.01810986
6.206974,-4.001154946,-4.742873959,18.08864463,19.12336682
6.217035,-2.599121856,-3.848811005,14.83918083,15.54895714
6.227096,-0.8990519451,-2.895224272,14.23040382,14.54974264
6.237156,0.3058784306,-2.557328005,15.85787689,16.06566985
6.247217,0.6141625884,-2.689068697,18.08929484,18.29838446
6.257278,0.3742603203,-2.887770241,19.38852861,19.60597688
6.267338,0.09960527211,-2.945524652,18.09421351,18.33266482
6.277399,-0.07056693938,-2.696218088,14.57813773,14.82554118
6.28746,-0.1215135832,-2.308096285,10.90053028,11.1428737
6.29752,0.1657898147,-1.79523393,8.36559974,8.557663824
6.307581,0.5557611832,-1.321812069,7.286762724,7.426504469
6.317642,0.467700142,-1.222588254,7.110665054,7.230146815
6.327702,-0.02996727258,-1.630004919,6.507451084,6.708556751
6.337763,-0.3923105288,-1.950046712,5.109058471,5.482615087
6.347823542,-0.2722687995,-1.768740635,2.932728313,3.435617716
6.357883542,0.2443181037,-1.270758275,0.1087342376,1.298591954
6.367944542,1.021650077,-0.3507779022,-3.041854314,3.227954722
6.378005542,1.796689449,0.5478583423,-6.174452738,6.453844463
6.388065542,2.238254218,1.107084695,-8.962465387,9.303827399
6.398126542,2.209679606,1.314250011,-11.14860074,11.44120778
6.408187542,1.870141295,1.284709146,-12.51590897,12.71990108
6.418247542,1.409279106,1.169095952,-13.42295245,13.5472693
6.428308542,0.8642242476,0.7598050359,-13.90130381,13.94885066
6.438369542,0.2901938045,0.04704742804,-13.91732518,13.92042981
6.448429542,-0.1001965353,-0.2765230143,-13.84115935,13.84428389
6.458490542,-0.3417068973,-0.04072549157,-14.11674564,14.1209394
6.468551542,-0.3667992731,0.1955770844,-14.49964939,14.50560666
6.478612542,-0.1492533224,0.389916496,-14.8999755,14.90582374
6.488672542,0.2271050519,0.6257502349,-15.22244242,15.23699096
6.498733542,0.6306537831,0.8757010163,-15.04246279,15.08112274
6.508794542,0.8351211204,1.033499387,-14.40201258,14.46317789
6.518854542,0.8739576689,0.9809146453,-13.52161603,13.58528968
6.528915542,0.8070194019,0.8422533347,-12.3476378,12.40261385
6.538976542,0.6948218586,0.577448433,-11.09503089,11.13175344
6.549036542,0.4983344723,0.08569883913,-9.976999987,9.989805318
6.559097542,0.1907889092,-0.2098912145,-8.926427243,8.930932653
6.569158542,-0.02661279805,-0.3375212411,-8.080818118,8.087907658
6.579218542,-0.1865674753,-0.3720676875,-7.268632262,7.280539592
6.589279542,-0.2602244489,-0.4433410802,-6.640943602,6.660810762
6.599340542,-0.1844421586,-0.5351909344,-6.012917558,6.039505427
6.609400542,-0.3025278847,-0.60228894,-5.349420549,5.391713577
6.619461542,-0.2834039811,-0.7978720178,-4.843243462,4.916698568
6.629522542,-0.1714409111,-1.095710326,-4.744371724,4.872272176
6.639582542,-0.2873808552,-0.9309514301,-4.958784444,5.053592928
6.649643542,-0.2082635324,-0.3628359573,-4.901500441,4.919322129
6.659704542,-0.05913212445,0.1878806868,-4.549419706,4.553681524
6.669764542,-0.1342264533,0.7133536584,-4.378968108,4.438721874
6.679825542,-0.5468374916,1.148310197,-4.288835033,4.473449842
6.689886542,-1.168415117,1.595801777,-4.162907057,4.608858033
6.699946542,-1.162720587,1.793963184,-3.631072388,4.213657527
6.710007542,-0.6805609381,2.558322324,-1.607376194,3.0970687
6.720068542,0.1350718876,3.724781621,1.953081125,4.207941114
6.730129542,0.6899026691,4.055745721,6.764761317,7.917514429
6.740189542,0.4875139074,3.791566764,11.02821125,11.67197891
6.750250542,0.2756390615,3.156096629,12.65160647,13.04224172
6.760311542,0.8341684628,2.348100157,11.88597089,12.1443697
6.770371542,2.338074229,2.206772516,10.30675371,10.79655538
6.780432542,4.200167854,2.879881763,9.740701139,10.99165082
6.790493542,4.996789591,2.598178115,11.75636034,13.03573719
6.800553542,3.891138414,1.278573663,14.65212606,15.21382617
6.810614542,1.919629497,-0.0294385381,16.15624744,16.26991627
6.820675542,0.149040301,-1.002814588,15.66733367,15.70010174
6.830735542,-0.6561287861,-1.432264511,13.16368574,13.25762079
6.840796542,-1.332751478,-1.075899228,10.20384272,10.34660291
6.850857542,-1.442407968,-0.3415642253,8.073906709,8.208847447
6.860917542,-0.5898319221,-0.04009318829,7.30557731,7.329458983
6.870978542,0.1917236962,-0.2452146097,8.24985469,8.255724716
6.881039542,-0.1905764177,-1.082035954,11.31473885,11.36795656
6.891099542,-1.291009083,-2.965552828,15.69649374,16.02626356
6.901160542,-2.604550703,-4.648281505,19.19012206,19.91609877
6.911221542,-3.302804147,-5.000102624,19.72405471,20.61426389
6.921281542,-2.819508384,-4.426110699,17.29092537,18.06975881
6.931342542,-1.745656997,-3.079366542,13.36930074,13.82996815
6.941403542,-0.7315474161,-1.453951102,9.671369534,9.807370906
6.951464542,-0.1602761279,-0.07645599917,6.534003875,6.536416495
6.961524542,-0.1744116987,0.9081224383,4.163063763,4.264528778
6.971585542,-0.3685400989,1.215112662,2.973533108,3.233298583
6.981646542,-0.3761307349,0.9892901239,2.649519008,2.853089598
6.991706542,-0.008787707314,0.8043489785,2.317946797,2.453554943
7.001767542,0.5799113898,0.8382489422,1.418548551,1.746779465
7.011828542,1.461984154,0.9909999228,-0.394667176,1.809762607
7.021888542,1.980311316,1.422512963,-2.534677938,3.517068138
7.031949542,2.365073455,1.938431803,-4.476352315,5.421145668
7.042010542,2.433487486,2.213458223,-5.791350185,6.660405063
7.052070542,2.088833884,2.200326838,-6.695529699,7.350835541
7.062131542,1.515510735,1.851997969,-7.507090487,7.879281493
7.072192542,0.7728093166,1.212553628,-8.109990461,8.236471686
7.082252542,0.05935144985,0.6705719934,-8.377933856,8.404936948
7.092313542,-0.5998298203,0.540820999,-8.588485075,8.626375777
7.102374542,-1.004978203,0.5024161212,-8.636297758,8.709078143
7.112434542,-1.065314745,0.44934036,-8.735319185,8.811504045
7.122495542,-0.9308461071,0.5217256738,-9.041450161,9.104201951
7.132556542,-0.7654814398,0.8413562988,-9.4539607,9.522143413
7.142616542,-0.4892799492,1.253008321,-9.818936884,9.910648125
7.152677542,-0.0852297828,1.653855273,-10.34272345,10.4744656
7.162738542,0.0812633606,2.143227169,-11.10829939,11.31345844
7.172798542,0.09228728073,2.604130581,-11.84356805,12.12683459
7.182859542,-0.001960671907,2.853111163,-12.20760517,12.53658132
7.192920542,-0.277713343,2.872227465,-12.10275758,12.44200773
7.202981542,-0.4094800005,2.548113378,-11.54027765,11.82533568
7.213041542,-0.7365771179,2.154359391,-10.557487,10.80020102
7.223102542,-0.9248670367,1.705200843,-9.166551924,9.369565792
7.233163542,-1.033740438,1.297823136,-7.786296204,7.961116301
7.243223542,-0.9794537915,0.9352636054,-6.945193529,7.075998932
7.253284542,-0.6861460523,0.6749666145,-6.577560369,6.647606844
7.263345542,-0.5735113199,0.7111560555,-6.303250526,6.369114959
7.273405542,-0.6302093947,0.6792622715,-6.20602244,6.274812797
7.283466542,-0.444025716,0.4553994276,-6.306461232,6.338454129
7.293527542,-0.1659694339,0.4031384759,-6.599239506,6.613624463
7.303587542,0.2492419343,0.3915972782,-6.840364062,6.856095862
7.313648542,0.3816108185,0.2095831028,-6.880095307,6.893856927
7.323709542,-0.145838585,-0.1618051565,-6.419687886,6.42338247
7.333769542,-0.7247239347,-0.6235199607,-5.404934599,5.488835937
7.343831375,-1.337795871,-1.099613196,-4.117736732,4.467057506
7.353892375,-1.593281627,-1.493647703,-3.062356406,3.761323778
7.363952375,-1.004194823,-1.633656066,-2.398316191,3.070693723
7.374013375,-0.1147908749,-1.062772375,-1.895856764,2.176450077
7.384074375,0.6647287977,0.1014381184,-1.285774655,1.450989501
7.394134375,1.049998987,1.296506343,0.06861999929,1.669771024
7.404195375,1.197628026,2.267160952,2.301047759,3.445163633
7.414256375,1.496145342,3.011767174,4.651300423,5.739667936
7.424317375,1.9229092,3.508460954,4.91196111,6.335159035
7.434377375,2.352103161,3.767004949,2.745053156,5.220922562
7.444438375,2.219307923,3.445897501,0.6032122153,4.142873667
7.454499375,1.34774944,2.699364182,0.4679690409,3.053193503
7.464559375,0.5640134317,2.21220955,3.228328453,3.953996313
7.474620375,0.5810609159,1.191744119,8.000010767,8.109134239
7.484681375,0.9659080587,-0.1982505776,12.54993392,12.58861085
7.494741375,0.8490189287,-1.436202756,15.07889562,15.17091311
7.504802375,-0.1142682983,-2.361291768,15.57459099,15.7529883
7.514863375,-1.297495399,-2.737215256,14.8956088,15.20049352
7.524923375,-2.027604181,-2.67517776,13.57483037,13.98369673
7.534984375,-1.982190465,-2.247316671,12.20839104,12.57077257
7.545045375,-1.493480473,-1.623031237,11.60534781,11.81307801
7.555105375,-0.8302208613,-1.399148659,12.04779258,12.15714562
7.565166375,0.04391338441,-1.847049471,13.33042845,13.45785432
7.575227375,1.005195574,-2.618246929,15.48679387,15.7386918
7.585287375,1.609007275,-3.006169634,17.83886093,18.16179836
7.595348375,1.846043457,-2.992695603,19.50485078,19.81926607
7.605409375,1.946860857,-2.771838959,19.33024941,19.62477773
7.615470375,1.829407251,-2.093046803,16.80504046,17.03340719
7.625530375,1.523696691,-1.371122662,12.78845588,12.95168841
7.635591375,0.8962708631,-0.8267822599,9.071739907,9.15332373
7.645652375,0.3043257207,-0.6439898202,6.459457138,6.498609355
7.655712375,0.1429300429,-0.817350628,4.793804669,4.865085226
7.665773375,-0.07963127481,-1.076672084,3.524941331,3.686566872
7.675834375,-0.6315841482,-1.166566081,2.262447365,2.6226786
7.685894375,-1.296478276,-0.9436639347,1.248514443,2.032276029
7.695955375,-1.417979324,-0.5516410158,0.6871893418,1.669491649
7.706016375,-0.8700764333,-0.01528144229,0.3138855529,0.925089543
7.716076375,0.2048300839,0.5671381107,-0.4237705225,0.7370091286
7.726137375,1.53366327,1.210860201,-1.368733197,2.385735949
7.736198375,2.690485185,1.894744916,-2.604641043,4.196775404
7.746258375,3.335031953,2.272492151,-4.421263942,5.98617019
7.756319375,3.046642014,2.17086228,-6.418945874,7.429504474
7.766380375,1.979805093,1.859793039,-8.134485617,8.576031402
7.776440375,0.7463764666,1.502292958,-9.409489701,9.557848001
7.786501375,-0.1357822146,1.087196926,-10.11622921,10.17538832
7.796562375,-0.6681635253,0.9392345957,-10.64920642,10.71140521
7.806622375,-0.8289898031,1.064497669,-11.28202952,11.36241918
7.816683375,-0.976702238,1.165584845,-11.66511337,11.76381763
7.826744375,-1.061334033,1.30196121,-11.71535498,11.83516266
7.836805375,-0.9329939356,1.432745298,-11.65820663,11.78291215
7.846865375,-0.5822593027,1.483024628,-11.53952102,11.64898851
7.856926375,-0.04213964067,1.607023022,-11.32093222,11.43450065
7.866987375,0.5932051443,1.698730899,-11.11977163,11.26440855
7.877047375,1.144311798,1.688180475,-10.94618885,11.1345612
7.887108375,1.248917901,1.768172724,-10.74327409,10.95920476
7.897169375,1.220217428,1.65985934,-10.40052785,10.60259606
7.907229375,1.123274904,1.320214317,-9.949678288,10.09954506
7.917290375,0.7081802613,0.87551851,-9.406409973,9.473573799
7.927351375,0.3030177717,0.4021839179,-8.73661142,8.751111402
7.937411375,0.01205995537,-0.07287891017,-8.198427259,8.198760047
7.947472375,-0.3204831856,-0.6591414177,-7.932639733,7.966426427
7.957533375,-0.4858476336,-1.143297598,-7.870945176,7.968372185
7.967593375,-0.3782898559,-1.373459794,-8.023635857,8.149124333
7.977654375,-0.08364368901,-1.33958892,-8.61342345,8.717371064
7.987715375,-0.03137791336,-1.132112459,-9.122436436,9.192470274
7.997775375,0.1141497825,-1.020712257,-8.822833877,8.88241416
8.007836375,0.5291115477,-1.015342101,-8.203207358,8.282722353
8.017897375,0.8018207887,-1.010656581,-7.763117257,7.869582762
8.027957375,0.8656615663,-0.8587128083,-7.372981673,7.473126279
8.038018375,0.5352158947,-0.7330503698,-6.992296944,7.050959895
8.048079375,0.1946986134,-0.8405932371,-6.442739364,6.500261153
8.058140375,-0.1584735775,-0.7676556538,-5.156189952,5.215429407
8.068200375,-0.668878786,-0.4762989843,-3.643004217,3.734399453
8.078261375,-1.000803876,0.004679526687,-2.140141155,2.362590625
8.088322375,-1.223554214,1.331622819,-0.8295795679,1.989599585
8.098382375,-1.009071985,3.190687003,0.209837274,3.353019759
8.108443375,-0.994335467,4.576625047,1.356733541,4.875953829
8.118504375,-1.001158217,4.680386812,2.668986143,5.480130064
8.128564375,-0.8348340952,3.83331296,4.409390001,5.902029854
8.138625375,-0.847025686,2.584352374,6.08792681,6.667771933
8.148686375,-1.256261711,1.69901595,8.139532349,8.409330268
8.158746375,-1.321018602,2.02314524,10.51131621,10.78545202
8.168807375,-0.3276925832,1.728222062,12.96067626,13.07949781
8.178868375,0.5236065403,0.8213921504,15.71881724,15.74897026
8.188928375,0.6062456046,0.1000167699,17.47369296,17.48449263
8.198989375,0.3622565713,-0.7764017728,17.95537489,17.97580365
8.209050375,0.1397554708,-1.654446719,18.13578722,18.211631
8.219110375,0.2562447608,-2.073456438,17.98210836,18.10306891
8.229171375,0.09471824236,-2.131450146,17.45320548,17.58312921
8.239232375,-0.3725518735,-2.062044866,16.58180312,16.71367759
8.249293375,-0.2931657249,-1.998729607,15.33324365,15.46574366
8.259353375,0.6715994223,-1.935541378,14.19064509,14.33777438
8.269414375,1.840890598,-1.865831312,13.37663315,13.63101313
8.279475375,2.563850574,-1.572533659,13.19487128,13.53332258
8.289535375,2.754942259,-1.255646731,13.3315441,13.67100668
8.299596375,2.420438547,-1.006995931,12.61617702,12.8856698
8.309657375,1.779727992,-0.6624564967,10.49847222,10.66884245
8.319717375,0.9119627434,-0.1188434887,7.56835352,7.624026156
8.329778375,0.07573810726,0.3565554629,4.566599411,4.581124124
8.339839375,-0.5219555059,0.815979529,2.129817311,2.339739712
8.3498995,-0.6995142491,1.097058328,0.548410356,1.411952931
8.3599605,-0.458144476,1.045610432,-0.4251797014,1.218185255
8.3700215,-0.05871850703,0.6533423685,-0.9829035026,1.181695142
8.3800815,0.2256828264,0.1417936639,-1.287617113,1.314912929
8.3901425,0.1703519403,-0.2387888304,-1.50690758,1.535190654
8.4002035,0.1022877554,-0.5292137278,-1.631062095,1.717816496
8.4102645,-0.007478077188,-0.7381012677,-1.202702678,1.411149579
8.4203245,-0.05457323313,-0.8129266246,-0.4585000598,0.9349065406
8.4303855,0.006653656326,-0.624823232,-0.2694116306,0.6804637897
8.4404465,0.2556708748,-0.3424116695,-0.9138736135,1.008850003
8.4505065,0.1975904818,-0.007703487352,-2.001551619,2.011295659
8.4605675,-0.2136388047,0.3097091426,-3.353847123,3.374885453
8.4706285,-0.7440139722,0.4131357528,-5.018395053,5.09004193
8.4806885,-1.299929741,0.2807191224,-6.904446037,7.031358022
8.4907495,-1.756199234,0.1669444754,-8.671966358,8.849582291
8.5008105,-2.03614974,0.3011160013,-9.9952433,10.20497257
8.5108705,-2.160721015,0.730169739,-11.04173235,11.27482667
8.5209315,-2.052927595,1.129741559,-11.72304524,11.95494113
8.5309925,-1.73752966,1.243949814,-11.87689016,12.06759878
8.5410525,-1.416024308,1.366137618,-11.56629542,11.73246123
8.5511135,-0.8184376985,1.638331061,-10.92515056,11.07758474
8.5611745,0.02993683051,1.948045503,-10.08945598,10.27584057
8.5712345,0.8610518407,2.192827346,-9.264002205,9.558851338
8.5812955,1.368247001,2.284119777,-8.437204742,8.847357056
8.5913565,1.439221674,2.1450075,-7.670986773,8.094223513
8.6014165,1.199402509,1.699995798,-7.234795595,7.528002351
8.6114775,0.725848135,1.071526315,-7.196073579,7.311531926
8.6215385,0.2736064962,0.4810988174,-7.261378791,7.282440425
8.6315995,0.001158479601,0.002483020127,-7.410826607,7.410827113
8.6416595,-0.03755878575,-0.3571649621,-7.521713789,7.530282584
8.6517205,0.07217481405,-0.5511000022,-7.550369239,7.570798905
8.6617815,0.2544450244,-0.6299279243,-7.509929895,7.540596694
8.6718415,0.5558795893,-0.6624776928,-7.401649987,7.451999821
8.6819025,0.9237920992,-0.6394794973,-7.390049111,7.474968343
8.6919635,1.515094998,-0.460283753,-7.48133818,7.647077543
8.7020235,2.112307239,0.1412981124,-7.809245941,8.091114212
8.7120845,2.07183369,0.7846448851,-8.110155353,8.407305293
8.7221455,1.499246851,1.288716536,-8.239371217,8.47323843
8.7322055,0.6872175546,1.457336933,-7.773390815,7.938621018
8.7422665,-0.2820303605,1.409225458,-5.907862388,6.080155879
8.7523275,-0.9627547283,1.191456582,-3.033207452,3.398060167
8.7623875,-1.069459032,1.060462871,-0.3040435195,1.536478631
8.7724485,-1.137860857,1.254286668,1.579729389,2.315924722
8.7825095,-0.9419331589,1.667496242,2.296760581,2.990466679
8.7925705,-0.4133980004,1.605767333,2.785455077,3.241627156
8.8026305,0.02187267959,1.242471492,3.618408489,3.825845503
8.8126915,0.4604786114,1.155819118,4.253185143,4.431426661
8.8227525,1.003522978,1.414634132,4.438931889,4.765749092
8.8328125,1.665351337,1.919964834,4.451530885,5.125991344
8.8428735,2.274048533,1.926892616,5.04450404,5.85928604
8.8529345,1.942768683,1.432175779,6.782708761,7.199348287
8.8629945,0.9429078166,0.6240405822,9.189362497,9.258665396
8.8730555,-0.05462408563,-0.1691643342,12.05600207,12.05731257
8.8831165,-0.3972383429,-0.7643521962,14.9164319,14.94128419
8.8931765,0.2158785258,-1.26507595,16.53365013,16.58338347
8.9032375,1.146469859,-1.377000575,16.56584022,16.66246038
8.9132985,1.601313947,-0.9785811677,15.75256035,15.86395238
8.9233585,1.621739733,-0.6237615238,14.71605835,14.81828234
8.9334195,1.599552035,-0.7249669596,14.24960607,14.3574168
8.9434805,1.593142609,-1.277452752,14.94197254,15.08086643
8.9535415,1.730188626,-1.957144063,16.54390848,16.74887678
8.9636015,1.48860258,-2.350763418,17.85070271,18.06625621
8.9736625,1.061647225,-2.357445031,17.82383125,18.01037485
8.9837235,0.6675737605,-2.060620776,16.21693335,16.36095169
8.9937835,0.3022104905,-1.616914611,13.63376329,13.73263432
9.0038445,-0.03273951061,-0.9277008898,10.4591918,10.50030446
9.0139055,-0.4600707316,-0.1598962051,7.45761895,7.473507361
9.0239655,-1.143425652,0.1652744192,5.12142884,5.250121067
9.0340265,-1.729159663,0.224073161,3.495791207,3.906502027
9.0440875,-2.140045115,0.2521773279,2.360951899,3.19647937
9.0541475,-2.383242069,0.2643737975,1.404229304,2.778776026
9.0642085,-2.385468251,0.2988095854,0.3369785464,2.427612095
9.0742695,-2.215153038,0.3834020765,-0.8479088348,2.402675494
9.0843295,-1.890519718,0.561118256,-2.103714171,2.883492989
9.0943905,-1.346306932,0.6316148461,-3.364710081,3.678689114
9.1044515,-0.8486087465,0.5675539939,-4.631675413,4.74285478
9.1145125,-0.3906214875,0.5601155316,-5.793445827,5.833552014
9.1245725,0.06729368633,0.6642610936,-6.87372652,6.90607613
9.1346335,0.3421062256,0.6789183822,-7.905467137,7.941937893
9.1446945,0.2523349835,0.5650729838,-8.799809296,8.82154318
9.1547545,-0.1000448822,0.4850576748,-9.77307191,9.785613137
9.1648155,-0.5600273848,0.4151086765,-10.72233521,10.74497177
9.1748765,-1.035858811,0.3444344041,-11.25598836,11.30879802
9.1849365,-1.406476389,0.4520525544,-11.28049171,11.37681944
9.1949975,-1.585038953,0.6629463471,-10.98329995,11.11686665
9.2050585,-1.567302155,0.9614164469,-10.80615388,10.9614652
9.2151185,-1.261025877,1.236234998,-10.9360451,11.07770489
9.2251795,-0.9184400696,1.444570707,-11.36651477,11.49469333
9.2352405,-0.337315346,1.563755819,-11.88347179,11.99066369
9.2453005,0.2683118973,1.692493966,-12.21130295,12.33095482
9.2553615,0.7082597103,1.773952404,-12.34750682,12.49437728
9.2654225,1.065879074,1.846096374,-12.25610432,12.44010703
9.2754825,1.391982019,1.761534234,-12.06232876,12.26949029
9.2855435,1.385306545,1.497462865,-11.64073983,11.81813408
9.2956045,0.9256412812,1.005418937,-10.71904791,10.80581635
9.3056655,0.2855392747,0.2450283028,-9.478269914,9.485735191
9.3157255,-0.1801961481,-0.5191322875,-8.127551989,8.146107679
9.3257865,-0.5658889993,-1.099066993,-6.955023867,7.064031116
9.3358475,-0.7137080728,-1.466270163,-6.255995083,6.465044616
9.34590725,-0.548388831,-1.60458868,-5.944937244,6.182047717
9.35596825,-0.2747742948,-1.444284486,-5.967712149,6.146140812
9.36602925,0.289523202,-1.145333452,-6.157386469,6.269690625
9.37608925,0.8391652009,-0.8552988383,-6.228676892,6.34288185
9.38615025,1.215951738,-0.6212778459,-6.08990083,6.241107026
9.39621125,1.35863871,-0.5724235551,-5.769306766,5.954701372
9.40627125,1.085523307,-0.7168771905,-5.345413452,5.50142879
9.41633225,0.6798801029,-0.6712572871,-5.131464416,5.219650406
9.42639325,0.03603109103,-0.4054641328,-5.080117092,5.096399619
9.43645325,-0.8306984326,0.3074039874,-4.715222769,4.797695578
9.44651425,-1.149956553,1.202215166,-3.391816018,3.777848234
9.45657525,-0.4199868623,1.665438168,-0.8702159625,1.925447761
9.46663625,0.7199238823,2.250984191,2.177761556,3.213699678
9.47669625,1.758641909,3.160769431,5.107931128,6.258933229
9.48675725,2.979207246,3.540441715,7.339978818,8.676732819
9.49681825,3.313987239,3.007060457,9.007891236,10.05818217
9.50687825,2.637561159,1.60221281,10.68771385,11.12434457
9.51693925,1.938091495,0.3685400623,11.83552462,11.99881925
9.52700025,2.171280941,-0.4029279761,13.1370353,13.32135535
9.53706025,3.10223354,-0.9263730602,15.38482428,15.721795
9.54712125,3.942114148,-1.026980472,17.45730672,17.92630778
9.55718225,3.938098865,-1.251295964,17.97213652,18.44104268
9.56724225,2.937410764,-2.03813677,17.0003819,17.37225858
9.57730325,1.305375545,-2.612217573,15.23960166,15.51686646
9.58736425,-0.6887268671,-2.405442486,13.08453432,13.32161914
9.59742425,-2.267594523,-1.407184779,10.61330218,10.94368937
9.60748525,-2.787718534,-0.153480567,8.236414865,8.69675001
9.61754625,-2.479220314,0.8246489033,6.991805193,7.464041736
9.62760725,-1.765866728,1.269055712,7.953191527,8.245122386
9.63766725,-0.6317235312,0.4578905242,11.28163425,11.30858124
9.64772825,0.1591165885,-1.023934584,15.41657466,15.45136028
9.65778925,0.8282051799,-2.484269092,18.93939579,19.11957713
9.66784925,1.325650035,-3.457055157,21.13464403,21.45650849
9.67791025,1.07701612,-3.267025326,21.4879866,21.76159429
9.68797125,0.4711754347,-2.333993603,19.52544,19.67008743
9.69803125,0.1364210229,-1.249488589,15.59036561,15.64095049
9.70809225,0.3715137369,0.01347487193,10.85722697,10.86358971
9.71815325,0.09556528464,1.287239675,6.777299502,6.899123658
9.72821325,-0.467575304,2.146395483,3.301402277,3.965463053
9.73827425,-0.9504551833,2.558228476,0.3975855213,2.757892717
9.74833525,-1.230229907,2.681101281,-1.755691988,3.432815763
9.75839525,-1.269359328,2.474670303,-3.443927574,4.42672603
9.76845625,-1.198118315,2.027706215,-4.583354023,5.153078117
9.77851725,-1.152391042,1.486722115,-5.361376936,5.681787607
9.78857825,-1.224469961,0.845678122,-5.947559136,6.130901878
9.79863825,-1.320912182,0.3730587906,-6.213806253,6.363597254
9.80869925,-1.370775191,0.1763307183,-6.47460552,6.620470813
9.81876025,-1.321133645,0.2099141648,-6.795126493,6.925547063
9.82882025,-1.286045089,0.3299506317,-7.20900645,7.330249204
9.83888125,-1.241534622,0.4292422372,-7.928985223,8.037068109
9.84894225,-1.207580644,0.4963352727,-8.965076753,9.059646843
9.85900225,-1.221864004,0.4231128203,-10.11080533,10.19315263
9.86906325,-1.350886033,0.3066319357,-10.94792781,11.03521814
9.87912425,-1.595466585,0.2152210978,-11.40115368,11.51425807
9.88918425,-1.850634398,0.1017369294,-11.52426797,11.67235839
9.89924525,-2.149984066,-0.06130178863,-11.38888271,11.59020443
9.90930625,-2.311497318,-0.1014824659,-11.22031801,11.45638926
9.91936725,-2.325186966,-0.008873295933,-11.18026692,11.41949831
9.92942725,-2.235550465,0.04485695142,-11.09460404,11.31768249
9.93948825,-2.093206871,0.01320228204,-10.91141662,11.11038712
9.94954925,-1.908846939,0.01749212835,-10.70367441,10.87256402
9.95960925,-1.633309765,0.073995235,-10.47228488,10.59914745
9.96967025,-1.340045734,0.07989573341,-10.15145634,10.23983261
9.97973125,-1.072336958,0.03176247742,-9.932128454,9.989899451
9.98979125,-0.7052096564,-0.04486378536,-9.722788194,9.748432883
9.99985225,-0.2510572572,-0.1674590669,-9.348923657,9.353793125
10.00991325,0.2137615962,-0.3028441825,-8.755754619,8.763597867
10.01997325,0.5999808978,-0.4226205944,-8.027470461,8.060947044
10.03003425,0.746631259,-0.5168586707,-7.286671507,7.343036346
10.04009525,0.7528254338,-0.8364436144,-6.514158425,6.610646265
10.05015525,0.5031148269,-1.305921822,-5.70918511,5.878209843
10.06021625,0.1410980737,-1.602261634,-4.88667658,5.144585407
10.07027725,-0.2402480396,-1.790600012,-4.492536823,4.842195229
10.08033825,-0.4627013574,-2.115554783,-4.517290426,5.00954862
10.09039825,-0.4923693987,-2.238127626,-4.47726565,5.029667046
10.10045925,-0.5465160044,-2.043519717,-3.980495564,4.507659871
10.11052025,-0.4667585941,-1.893145703,-3.321006237,3.851096813
10.12058025,-0.0321353836,-1.472866699,-2.887255687,3.241390812
10.13064125,0.47949076,-0.6069633503,-3.008837426,3.10667323
10.14070225,0.7788088522,0.5694549237,-3.31369137,3.451285649
10.15076225,0.8689681667,1.845823017,-3.378862097,3.947008659
10.16082325,1.21037576,3.152084562,-3.015240712,4.52684472
10.17088425,1.794441194,4.11629247,-1.991928856,4.912398952
10.18094425,2.458902701,4.245782568,0.133374989,4.908223813
10.19100525,2.668731789,3.945666624,2.856770643,5.554417429
10.20106625,2.2661564,3.492391051,4.919706332,6.444825093
10.21112625,2.210583439,2.905771772,5.39158716,6.511482231
10.22118725,2.159807973,2.127568764,4.712452943,5.603439307
10.23124825,1.827153588,1.436447755,4.671551669,5.217783762
10.24130925,1.539076768,0.6579025389,6.955813242,7.154364465
10.25136925,1.242564024,-0.1492088836,10.65094539,10.72421868
10.26143025,1.034506643,-0.9921963362,13.56571105,13.64123066
10.27149125,1.148780386,-1.735047663,14.65261021,14.79963083
10.28155125,1.207851444,-2.004494961,14.4446341,14.63298874
10.29161225,1.376252131,-1.81657846,13.48306183,13.67431839
10.30167325,1.774797912,-1.695463036,12.7585731,12.99252439
10.31173325,2.241874229,-1.86329479,12.74450938,13.07365239
10.32179425,2.850141655,-2.261224566,13.38699441,13.87256514
10.33185525,3.303707834,-2.789502812,15.50831631,16.09980391
10.34191525,4.066659841,-3.667260806,19.50872281,20.26269453
10.35197604,4.572871719,-4.78868397,23.64066009,24.55042687
10.36203704,4.50356321,-5.089042867,25.58881669,26.47579986
10.37209804,4.051349492,-4.345474672,24.66047063,25.36602836
10.38215804,3.537390053,-3.085701123,21.19331733,21.70694311
10.39221904,2.82156368,-2.015796752,16.51802169,16.87808338
10.40228004,2.064783409,-1.094728578,12.05280014,12.27728603
10.41234004,0.9312443756,-0.2374396402,8.500312572,8.554467107
10.42240104,-0.238451647,0.3581215665,5.879882292,5.89560226
10.43246204,-1.153279818,0.6683151144,3.766228439,3.995144063
10.44252204,-1.757490592,0.957154119,1.841409831,2.719504983
10.45258304,-2.013883836,1.032942805,0.1734699315,2.269975938
10.46264404,-2.279365114,1.00083779,-1.193393326,2.760682748
10.47270404,-2.369276726,0.9771347858,-2.518654228,3.593310968
10.48276504,-2.193176717,0.8207289299,-3.842335798,4.49968493
10.49282604,-1.846323539,0.5558763003,-5.165574149,5.513716112
10.50288604,-1.483054449,0.3421737244,-6.556078284,6.730430582
10.51294704,-0.8721797499,0.2547254714,-8.129247681,8.179868608
10.52300804,-0.2845137461,-0.09419440493,-9.578490021,9.583177539
10.53306904,-0.2632637036,-0.5738105147,-10.74486921,10.76340005
10.54312904,-0.6194252287,-0.6122834395,-11.84706001,11.87903234
10.55319004,-0.7894675954,-0.5323135561,-12.83417292,12.86944487
10.56325104,-1.044256071,-0.9153181681,-13.50814404,13.57933112
10.57331104,-1.711382227,-1.597160085,-13.75975675,13.95745877
10.58337204,-2.237425667,-1.983819061,-13.69403639,14.01671303
10.59343304,-2.495635495,-1.841059144,-13.36423705,13.71934865
10.60349304,-2.364578049,-1.578955218,-13.01103248,13.31808151
10.61355404,-1.804022296,-1.440616527,-13.02084411,13.22392732
10.62361504,-1.047521083,-1.473613827,-13.33075239,13.45279887
10.63367504,-0.3566631613,-1.400893614,-13.4443556,13.52184932
10.64373604,0.005868886895,-1.168406273,-13.30836924,13.3595621
10.65379704,0.01741724744,-1.091902327,-13.13750191,13.18281117
10.66385804,-0.129316729,-1.277756807,-12.7803797,12.84474564
10.67391804,-0.3992135324,-1.531753131,-12.14046159,12.24322044
10.68397904,-0.4684554196,-1.723660356,-11.15925437,11.30130141
10.69404004,-0.4259706835,-1.832729055,-10.10904181,10.28265886
10.70410004,-0.20720409,-1.886252713,-9.147352007,9.342105307
10.71416104,0.3186751169,-1.820975274,-8.307467306,8.510670821
10.72422204,1.154448092,-1.687579527,-7.638351708,7.907280941
10.73428204,1.972669882,-1.572563626,-7.124486117,7.557955098
10.74434304,2.614222583,-1.437814103,-6.726904104,7.358852352
10.75440404,2.946476871,-1.329850382,-6.362442475,7.136588978
10.76446404,3.104615403,-1.442476234,-6.06286272,6.962591389
10.77452504,2.847040876,-1.726388375,-5.8219358,6.706787236
10.78458604,2.117706558,-1.873281396,-5.667656431,6.333734575
10.79464704,1.3493086,-2.007249731,-5.717969967,6.208451154
10.80470704,0.8772576912,-2.10443908,-5.795202915,6.227569488
10.81476804,0.802140339,-1.941073575,-5.597998551,5.979028644
10.82482904,0.9732588858,-1.247242381,-4.753858246,5.010191078
10.83488904,1.468611534,-0.0005266879499,-3.387907739,3.692524741
10.84495004,2.162927024,1.395331596,-1.65121277,3.058056112
10.85501104,2.489204434,2.771481401,0.1350800371,3.727666092
10.86507104,2.081242444,4.123139267,1.169619716,4.764436777
10.87513204,0.9682963539,4.551362152,1.31468212,4.835378407
10.88519304,-0.2996216357,4.088535444,1.466751827,4.353993124
10.89525304,-0.5999500537,3.597930955,2.607069976,4.483509907
10.90531404,0.365825127,3.043413182,5.274021288,6.100122324
10.91537504,2.316273909,2.4719455,9.540379624,10.12395588
10.92543504,4.499716035,1.561700815,14.66209205,15.41633216
10.93549604,5.3262761,-0.05085184582,19.50837314,20.22247329
10.94555704,4.232231646,-2.40599037,23.47678134,23.97623483
10.95561804,2.231876952,-4.393525628,25.1589902,25.63706556
10.96567804,0.5829667062,-5.037990242,24.00437561,24.53428712
10.97573904,-0.3451986718,-4.390696453,21.21100633,21.66342925
10.98580004,-0.4000728172,-3.210030761,18.59798856,18.87722263
10.99586004,0.06425342655,-1.983287841,16.58393384,16.70222802
11.00592104,0.5047516818,-1.028274388,14.97358025,15.01733092
11.01598204,0.7382536608,-0.5503699042,13.75556547,13.78635219
11.02604204,0.75120327,-0.3292477598,12.99076252,13.01662865
11.03610304,0.6842065309,-0.4466469132,12.1404499,12.16791501
11.04616404,0.5238489805,-0.4432941928,10.76780199,10.78964722
11.05622404,0.3495464055,-0.1788168082,8.988369137,8.996940474
11.06628504,-0.09115531459,-0.07426159395,7.578741099,7.579653074
11.07634604,-1.006694507,-0.3159672347,7.485184479,7.559183541
11.08640704,-2.237580034,-0.8629439997,8.284901732,8.625023679
11.09646704,-3.495532468,-1.541262311,9.091300598,9.861337805
11.10652804,-4.398966462,-1.665689306,8.972252457,10.13048572
11.11658904,-4.777620161,-1.169609995,8.12029501,9.493831312
11.12664904,-4.423278308,-0.5567891237,6.944518175,8.252377706
11.13671004,-3.639934136,-0.01596940376,5.653341277,6.723811652
11.14677104,-2.668717171,0.4098822889,4.422396548,5.181471418
11.15683104,-1.550070265,0.7353511029,3.565720983,3.956996992
11.16689204,-0.5416431541,1.261540285,2.721004143,3.047740924
11.17695304,0.3930884278,1.875426447,1.380942768,2.361936874
11.18701304,0.9601046971,2.289573768,-0.6222659522,2.559524171
11.19707404,1.262889823,2.476814769,-2.685101069,3.865135167
11.20713504,1.738787542,2.493104527,-4.555915378,5.476798082
11.21719604,1.786582536,2.307047002,-6.265503241,6.911647697
11.22725604,1.40307331,1.943735813,-7.735923026,8.098841194
11.23731704,1.075340673,1.551451377,-8.921750055,9.119264388
11.24737804,0.9056709932,1.080017422,-9.775625973,9.876717104
11.25743804,0.7895678752,0.3766474461,-10.29622522,10.33332156
11.26749904,0.5121367883,-0.07718383133,-10.56036149,10.57305425
11.27756004,0.02542826179,-0.3060448752,-10.94777461,10.95208103
11.28762004,-0.359186308,-0.7672195977,-11.56529555,11.59627965
11.29768104,-0.4906233836,-1.192734783,-12.15097489,12.2192274
11.30774204,-0.390547776,-1.405816531,-12.4692365,12.55431027
11.31780204,-0.1788223631,-1.565645639,-12.51263804,12.6114763
11.32786304,0.07596910883,-1.707375276,-12.50265684,12.61892744
11.33792404,0.3809250863,-1.938135934,-12.63731822,12.79075004
11.34798517,0.7940030614,-2.192677511,-12.73165603,12.9434671
11.35804517,1.181419544,-2.316851321,-12.61058358,12.87596095
11.36810617,1.542446665,-2.383259319,-12.27335711,12.59739503
11.37816717,1.658169787,-2.539472655,-11.86890988,12.25028449
11.38822717,1.57086004,-2.83629574,-11.4402774,11.89084193
11.39828817,1.387707119,-3.213128909,-10.96467891,11.50973988
11.40834917,1.215238085,-3.651729432,-10.30655491,11.00168194
11.41840917,1.013705173,-4.073086224,-9.563401866,10.44395925
11.42847017,0.8426046793,-4.622179242,-8.807325307,9.982159218
11.43853117,0.603037749,-5.147170622,-8.171202623,9.676030811
11.44859117,0.2494238741,-5.467622014,-7.641834894,9.399720385
11.45865217,-0.05315718368,-5.541891593,-7.318495563,9.1801833
11.46871317,-0.3169737598,-5.384396839,-7.270360115,9.052642591
11.47877317,-0.4701507832,-5.003819114,-7.404668904,8.949210527
11.48883417,-0.3548753386,-4.506290351,-7.294799137,8.581764602
11.49889517,-0.1070106976,-3.735869696,-6.928677483,7.872404038
11.50895617,0.2650042918,-2.470167947,-6.418323146,6.882356352
11.51901617,0.3390839826,-1.011811844,-5.841626299,5.938294281
11.52907717,-0.1072636628,0.3892751661,-4.948813772,4.965259147
11.53913817,-0.6299418846,1.508854411,-3.344964033,3.723204641
11.54919817,-0.8500576135,2.339936713,-1.020791706,2.690709474
11.55925917,-0.6547091552,3.4211553,1.666270519,3.861269883
11.56932017,0.4306275523,4.589916645,3.714784051,5.92050635
11.57938017,1.530456072,5.481314439,4.770144496,7.42572436
11.58944117,1.707087301,5.97639468,5.502884232,8.301395985
11.59950217,1.559380932,6.024565212,6.470019549,8.977093507
11.60956217,1.689769456,5.116013149,8.036612583,9.675538908
11.61962317,1.769555152,3.389487949,11.4724289,12.09283171
11.62968417,1.774774961,1.791779834,15.96644214,16.16439222
11.63974517,1.65329584,0.770624139,19.49603903,19.5811845
11.64980517,1.577537853,-0.09005209118,21.37664625,21.43496536
11.65986617,1.643817065,-0.776524272,21.38484171,21.46197986
11.66992717,1.932236386,-0.916553831,20.10771626,20.22112414
11.67998717,2.01351283,-0.6375637302,18.4083926,18.52915647
11.69004817,1.504157196,-0.2559020774,16.94357035,17.01212953
11.70010917,1.028684789,-0.1087478323,15.613979,15.64820625
11.71016917,0.2886988725,-0.04450944409,13.85949622,13.8625742
11.72023017,-0.3040175359,0.2966909382,11.88014355,11.88773582
11.73029117,-0.4863472417,0.8933718136,9.974302082,10.02603356
11.74035117,-0.5048475396,1.583875796,8.530936194,8.691398387
11.75041217,-0.2679703651,2.008655255,7.362008203,7.635814877
11.76047317,-0.07480997141,2.275247066,6.33851216,6.734915155
11.77053417,0.01375009306,2.508230397,5.392240294,5.9470719
11.78059417,0.01302485559,2.694065436,4.207530668,4.996145769
11.79065517,-0.01779353404,2.838293442,2.974892001,4.111716027
11.80071617,-0.2111384804,2.916292082,1.844758531,3.457234879
11.81077617,-0.6112563395,2.750785182,1.117054417,3.031214938
11.82083717,-1.084897582,2.088269628,0.677719776,2.448913411
11.83089817,-1.354005669,0.9695344287,0.3948063397,1.711490697
11.84095817,-1.279713285,-0.1741660425,0.1701013505,1.302664336
11.85101917,-1.101727988,-1.124164851,0.1505248725,1.581204891
11.86108017,-0.7927524881,-1.66441549,0.6549700141,1.956456274
11.87114017,-0.7419414997,-1.719974272,1.509466907,2.405676418
11.88120117,-0.7443572769,-1.508627393,2.207925003,2.775780464
11.89126217,-0.6389623842,-1.177466826,2.467257788,2.807501032
11.90132317,-0.6047339532,-0.8372044102,2.33381614,2.55211915
11.91138317,-0.6840552342,-0.2845322745,1.695798374,1.850573507
11.92144417,-0.8100639009,0.2541824113,0.6535193199,1.071400823
11.93150517,-0.9768837941,0.4092079588,-0.6951169968,1.266862558
11.94156517,-1.021050738,0.3254864287,-2.161628503,2.412700522
11.95162617,-0.8740847728,0.1475203539,-3.779585234,3.882145153
11.96168717,-0.6243324313,-0.1539098988,-5.616934174,5.653620853
11.97174717,-0.3653192697,-0.3588081758,-7.421717631,7.439361133
11.98180817,-0.2099279058,-0.3894842771,-9.048555112,9.059366278
11.99186917,-0.06980025977,-0.4189277854,-10.28743919,10.2962021
12.00192917,-0.01634881496,-0.4797108346,-10.92256376,10.93310517
12.01199017,-0.1396023468,-0.4980273838,-11.15661727,11.16860014
12.02205117,-0.3078356216,-0.5156498685,-11.13991646,11.15609234
12.03211217,-0.5199772101,-0.5768580835,-11.00761969,11.03498223
12.04217217,-0.6318162096,-0.6633527286,-10.90281654,10.94123563
12.05223317,-0.5822069336,-0.7546192865,-10.97447534,11.01578522
12.06229417,-0.5073199251,-0.822887722,-11.15071977,11.19254525
12.07235417,-0.6018097606,-0.9107091004,-11.1424214,11.19576352
12.08241517,-0.8136207622,-1.033336322,-10.90970924,10.98869957
12.09247617,-0.9972620715,-1.269988927,-10.63062865,10.75256569
12.10253617,-1.085164361,-1.53304902,-10.30307465,10.47287774
12.11259717,-1.032872784,-1.685412403,-9.975911236,10.16986952
12.12265817,-0.735573151,-1.799528857,-9.656660278,9.850404037
12.13271817,-0.2802164812,-1.871850728,-9.306913167,9.497419603
12.14277917,0.2363240645,-1.906816347,-8.922105566,9.126651378
12.15284017,0.7419082437,-1.856270383,-8.526129783,8.757343013
12.16290117,1.272424,-1.739691668,-8.165303367,8.444984844
12.17296117,1.734537201,-1.703417734,-7.838698951,8.207036769
12.18302217,1.963922155,-1.636480564,-7.620853915,8.038188432
12.19308317,1.880575066,-1.468742073,-7.513548152,7.883347747
12.20314317,1.333026882,-1.391479304,-7.166056897,7.420616334
12.21320417,0.4728991207,-1.276803126,-6.56417083,6.703894278
12.22326517,-0.7425042942,-0.8107069485,-5.92417729,6.025316169
12.23332517,-1.644906255,0.08221813783,-4.936919366,5.204387498
12.24338617,-1.439062776,1.113673849,-3.83645233,4.246120299
12.25344717,-0.4104403326,2.279590963,-3.048279235,3.828446489
12.26350717,0.8155679581,3.240788285,-2.069893291,3.930943658
12.27356817,1.14482014,3.348945403,-0.432278806,3.565517274
12.28362917,1.168223109,2.888133646,2.658747084,4.095729147
12.29369017,1.006880887,2.07846604,6.594976886,6.987671309
12.30375017,0.356235876,1.34237541,9.934388988,10.03099997
12.31381117,0.09839628719,0.5063049947,12.10449654,12.11548031
12.32387217,0.6022512254,-0.0191344285,13.24541812,13.25911663
12.33393217,1.819105919,0.4595566517,14.15560273,14.2794057
12.34399317,3.097800766,1.057648168,14.86093715,15.21717589
12.35405429,3.323155088,0.9397462271,15.25245969,15.63854243
12.36411429,2.512512605,0.3369864401,15.77514931,15.97753471
12.37417529,1.078524482,-0.008165490478,16.69250378,16.72731192
12.38423629,-0.528510929,-0.04638756976,17.23654509,17.24470824
12.39429729,-1.707116829,0.07194881916,16.66087619,16.7482602
12.40435729,-2.264858903,0.3270444193,15.12381159,15.2959544
12.41441829,-2.341489734,0.6107292496,13.49540179,13.71063215
12.42447929,-2.091361636,0.862407006,12.66586199,12.86629703
12.43453929,-1.343247815,1.059328219,12.82553307,12.93911858
12.44460029,-0.03104396425,1.021948577,13.52221946,13.56081715
12.45466129,1.534598678,0.9091851698,13.96011627,14.07360853
12.46472129,2.898278273,0.7990730359,13.82687577,14.14994799
12.47478229,3.609563406,0.87900462,13.14053661,13.65559591
12.48484329,3.25585159,0.9197046031,11.86561439,12.33852629
12.49490329,2.173036859,0.8909037039,10.02345378,10.29492225
12.50496429,0.8576046878,0.8675500707,7.849675929,7.943899616
12.51502529,-0.2660510896,0.8364924386,5.777013397,5.843319824
12.52508629,-0.9791398691,0.5847347215,4.437119837,4.581338453
12.53514629,-1.298773893,0.3681041524,3.560684776,3.807990331
12.54520729,-1.37590393,0.1686641049,3.058013679,3.357529876
12.55526829,-1.152325918,-0.09762555107,2.515748162,2.768821877
12.56532829,-0.787071041,-0.4646225332,1.718711273,1.946618443
12.57538929,-0.4673526713,-0.7843712354,0.6475452197,1.119362124
12.58545029,-0.2385634019,-1.030531852,-0.3874885494,1.126523755
12.59551029,-0.08439198643,-1.231888909,-1.274873106,1.774816534
12.60557129,-0.0280414921,-1.48764539,-1.946617028,2.450141422
12.61563229,-0.04259163044,-1.747935072,-2.482505572,3.036432936
12.62569229,-0.1965617555,-1.924289143,-3.092863085,3.647920954
12.63575329,-0.4041751141,-2.082133414,-3.967434053,4.498796511
12.64581429,-0.494778817,-2.312363729,-5.118850218,5.638657611
12.65587529,-0.5627796327,-2.48573382,-6.606484791,7.08104758
12.66593529,-0.6166675356,-2.571038264,-8.361207896,8.769282415
12.67599629,-0.6459791891,-2.608300231,-10.03623228,10.38972943
12.68605729,-0.7609928977,-2.572243375,-11.52077836,11.82894248
12.69611729,-0.9734087938,-2.390112694,-12.73211562,12.99103273
12.70617829,-1.164752713,-2.268857375,-13.40650891,13.64693533
12.71623929,-1.407749182,-2.236002163,-13.51166407,13.76758982
12.72629929,-1.665680097,-2.313673944,-13.31916554,13.6208571
12.73636029,-1.734421572,-2.38067368,-13.05782424,13.38591047
12.74642129,-1.656245322,-2.292941472,-12.70704743,13.01805606
12.75648129,-1.537043691,-1.952581773,-12.29824988,12.54679357
12.76654229,-1.378740999,-1.654536035,-11.88547153,12.0790252
12.77660329,-1.094789243,-1.594047466,-11.66426435,11.82347722
12.78666429,-0.5874002478,-1.562659905,-11.73349071,11.85165597
12.79672429,0.00817532111,-1.553428028,-11.7761555,11.8781751
12.80678529,0.448172269,-1.548535371,-11.70740043,11.81786973
12.81684629,0.5459609574,-1.668508834,-11.48103834,11.61448391
12.82690629,0.5666737687,-1.909911717,-11.00117957,11.18010885
12.83696729,0.5592218943,-2.329031656,-10.39916545,10.67144599
12.84702829,0.3729914379,-2.861778491,-9.770402656,10.18772137
12.85708829,0.2929046833,-3.177099828,-9.199002217,9.73660096
12.86714929,0.2500870032,-3.143406124,-8.562735107,9.124909758
12.87721029,0.2002317787,-3.009651066,-7.940957982,8.494522116
12.88727129,0.3643789644,-2.908115921,-7.468895305,8.023360102
12.89733129,0.4708130169,-2.674845638,-6.945771818,7.457895831
12.90739229,0.7543818896,-2.20827759,-6.056003936,6.49005128
12.91745329,1.146148262,-1.509768623,-4.917778505,5.270446144
12.92751329,1.175781512,-0.7513613641,-3.661764423,3.918612606
12.93757429,0.681669424,0.1011793426,-2.276006473,2.378048765
12.94763529,-0.1164251351,0.8457789865,-0.9161534429,1.252291514
12.95769529,-1.360159132,1.861219905,-0.1055252856,2.307662884
12.96775629,-2.143646999,2.752655413,-0.346549269,3.506056286
12.97781729,-1.670849913,2.692277649,-0.8274979591,3.274881867
12.98787729,-0.9347696619,2.792921972,0.2596918041,2.956627689
12.99793829,0.884383693,3.163325249,3.690519276,4.940515527
13.00799929,3.696165639,2.562724108,8.559408041,9.669160321
13.01806029,5.594718847,1.38762175,13.21398349,14.41650903
13.02812029,5.920940856,0.286003105,17.03282693,18.03486988
13.03818129,5.135394915,-0.4684353563,19.72315658,20.38613789
13.04824229,3.88016933,-0.990337214,20.48720991,20.8749192
13.05830229,2.452733304,-1.194466728,19.54778455,19.7372372
13.06836329,1.503814696,-1.100340005,17.73868058,17.83628312
13.07842429,1.075426115,-0.7913038404,15.95006526,16.00585159
13.08848429,1.109926223,-0.4090336387,14.56858689,14.61653067
13.09854529,1.15182547,-0.03033593953,13.72109028,13.76938418
13.10860629,0.9788328172,0.2890221687,13.63700264,13.67514127
13.11866629,0.9848673631,0.1966118954,14.0838036,14.11956599
13.12872729,0.9811412249,-0.008298076093,14.37260576,14.40605787
13.13878829,1.091102354,-0.1427537768,14.14242895,14.18517464
13.14884929,1.344872318,-0.4387445109,13.45861462,13.53275603
13.15890929,2.006275439,-0.6388907558,12.46072295,12.63736282
13.16897029,2.881102077,-0.3388563797,11.12786534,11.49978087
13.17903129,3.127839667,0.2258421265,9.250077646,9.767206464
13.18909129,2.822622904,0.7188908985,6.776590235,7.376054459
13.19915229,1.955295904,1.096932686,3.977440978,4.565794578
13.20921329,0.7359524891,1.223788322,1.592083971,2.138694764
13.21927329,-0.3116457769,1.137077184,-0.3756958848,1.237422729
13.22933429,-0.9543572496,0.9716641308,-1.662187994,2.148906203
13.23939529,-1.073841155,0.6702106355,-2.393610352,2.707708928
13.24945629,-0.9743965347,0.304389163,-2.613351055,2.805655914
13.25951629,-0.7744803777,-0.01684546284,-2.233683742,2.364201067
13.26957729,-0.5488828111,-0.3194580956,-1.350045496,1.491961345
13.27963829,-0.2295919459,-0.4919501899,-0.3556411046,0.6490054285
13.28969829,0.1883364773,-0.517680972,0.2256750423,0.5953095347
13.29975929,0.6344870715,-0.4672181853,0.220950492,0.8183433243
13.30982029,1.083058413,-0.3872187369,-0.5219651538,1.263092039
13.31988029,1.384206391,-0.2958571983,-1.848651608,2.328319476
13.32994129,1.548758734,-0.2555062209,-3.501572934,3.837310263
13.34000229,1.233528322,-0.3930913148,-5.23968176,5.397256511
13.35006217,0.5172331484,-0.5795575967,-6.923448318,6.966889819
13.36012317,-0.2606122289,-0.7739642148,-8.467003323,8.506296762
13.37018417,-0.9990048341,-0.9508379567,-9.733672201,9.830894059
13.38024517,-1.456844012,-1.036262854,-10.56853005,10.71867821
13.39030517,-1.771298499,-0.9987038487,-11.06572348,11.25100635
13.40036617,-1.995047615,-0.8806333619,-11.55135579,11.75540516
13.41042717,-1.970646746,-0.7720309791,-11.92800301,12.11431947
13.42048717,-1.883874942,-0.7088811962,-12.2301532,12.39468211
13.43054817,-1.653988735,-0.7359206218,-12.59184325,12.72131182
13.44060917,-1.430242251,-0.9142067586,-12.84229353,12.95399051
13.45066917,-1.038041869,-1.156350338,-12.80100283,12.89497385
13.46073017,-0.6195446581,-1.29746207,-12.50168854,12.58409551
13.47079117,-0.4545996016,-1.248423226,-11.97524734,12.04872484
13.48085217,-0.5402940553,-1.344733885,-11.18850448,11.28197054
13.49091217,-0.5741075898,-1.766704927,-10.27902739,10.44553732
13.50097317,-0.6296613644,-2.401402937,-9.319584083,9.644576558
13.51103417,-0.7166940265,-3.02328882,-8.185599638,8.75545356
13.52109417,-0.7500602856,-3.280313124,-7.051004158,7.812791067
13.53115517,-0.776655542,-3.38202544,-6.053499573,6.977545915
13.54121617,-0.8720078418,-3.303249997,-5.476348983,6.454630617
13.55127617,-0.7789176104,-2.929520238,-5.292831196,6.099415016
13.56133717,-0.5408133611,-2.225561667,-5.465216469,5.925723152
13.57139817,-0.4846993501,-1.256246216,-5.772316913,5.927286948
13.58145917,-0.6329061306,-0.2670984721,-6.030275602,6.069278013
13.59151917,-1.105838434,0.6791909355,-6.136765679,6.27248531
13.60158017,-1.534175778,1.7457985,-5.734629269,6.187687821
13.61164117,-1.45246094,2.85848914,-4.688567652,5.680076546
13.62170117,-0.9408403873,4.00494862,-3.347960147,5.304114556
13.63176217,-0.02236315135,5.041465243,-2.095765466,5.459771496
13.64182317,1.687728339,5.475171354,-0.3756011599,5.741690041
13.65188317,3.487181474,4.933621536,2.602484005,6.578296063
13.66194417,4.968475619,3.732235066,6.622113814,9.081173929
13.67200517,5.70758999,1.933090664,10.36922887,11.99309512
13.68206517,5.744850202,0.2906209436,13.57055489,14.73932577
13.69212617,4.66068725,-0.3634294496,16.1116098,16.77611567
13.70218717,3.308136807,-0.07783579588,16.70336673,17.02798543
13.71224717,2.22535643,0.5054238193,14.92552549,15.09897267
13.72230817,1.269803132,1.034742285,12.53140643,12.6380077
13.73236917,0.5410360304,1.613530973,10.77437543,10.90794977
13.74243017,-0.2261067861,2.255670881,10.87643858,11.11017964
13.75249017,-0.6286435103,2.270767076,12.80500701,13.0199762
13.76255117,-0.5209860376,1.696535123,15.37603709,15.47811921
13.77261217,0.1110572632,1.326078636,18.23601434,18.28450265
13.78267217,1.03919494,1.136295996,20.90570683,20.96233939
13.79273317,2.045034,0.9803783825,21.9993677,22.11595544
13.80279417,3.494412434,1.204579488,20.87051127,21.19528652
13.81285417,4.596680412,1.843183876,17.54343854,18.22907111
13.82291517,4.809303884,2.944330651,13.11007262,14.27138714
13.83297617,3.937983967,3.978646089,8.906408715,10.51957502
13.84303717,2.166639275,4.120801257,5.520835184,7.221838401
13.85309717,0.09866489366,3.52508985,3.327603065,4.848601383
13.86315817,-1.386717624,2.412937154,2.336281911,3.6336572
13.87321917,-2.058545161,1.161601868,1.766406426,2.950782734
13.88327917,-2.192753232,0.3724487798,0.9878443998,2.43366419
13.89334017,-2.147201814,0.155176625,0.04165614903,2.15320474
13.90340117,-1.966942096,0.1303850153,-0.9213837773,2.175961747
13.91346117,-1.680557021,0.2325507101,-1.769645199,2.451529291
13.92352217,-1.395918218,0.3606925142,-2.462308704,2.853357832
13.93358317,-0.9274469014,0.6170654386,-3.179745693,3.369229909
13.94364417,-0.4891064331,0.9091581264,-4.084191256,4.212649026
13.95370417,-0.203998756,1.105137792,-5.371782056,5.488076848
13.96376517,0.08989037912,0.9807751161,-6.969604484,7.038848399
13.97382617,-0.1507992531,0.6824172829,-8.596194044,8.624557137
13.98388617,-0.5944146774,0.3328870303,-9.942109652,9.965424572
13.99394717,-1.047358457,-0.03216363296,-10.82547542,10.87607063
14.00400817,-1.526075338,-0.2549192335,-11.3380248,11.44310693
14.01406817,-1.866508712,-0.4329782791,-11.63598605,11.79268825
14.02412917,-2.06802569,-0.51531877,-11.94459741,12.13324734
14.03419017,-2.197131335,-0.4999771379,-12.37409879,12.57758658
14.04425117,-2.156268068,-0.5162040384,-12.7524803,12.9437905
14.05431117,-1.899125943,-0.5670293525,-13.00129921,13.15150116
14.06437217,-1.522853815,-0.5688374577,-13.00441928,13.10563164
14.07443317,-1.050202323,-0.5213060264,-12.87728561,12.93055179
14.08449317,-0.4080878881,-0.3947104454,-12.78934816,12.80194354
14.09455417,0.1965679682,-0.3332234645,-12.44241064,12.44842397
14.10461517,0.441052882,-0.3426865983,-11.57279285,11.58626325
14.11467517,0.3191711435,-0.4809880127,-10.20729725,10.22360684
14.12473617,-0.05421110775,-0.7944309314,-8.708757039,8.74508482
14.13479717,-0.2927965646,-1.228593564,-7.410298018,7.517159616
14.14485717,-0.5666170872,-1.59664743,-6.278072416,6.502655703
14.15491817,-0.7458554797,-1.87571106,-5.261008894,5.634962907
14.16497917,-0.6689990193,-2.135288405,-4.580256752,5.097623777
14.17504017,-0.2644492814,-2.234804507,-4.170561647,4.738973418
14.18510017,0.2269978469,-2.063424663,-4.208342262,4.692482707
14.19516117,0.6446883432,-1.700988947,-4.5997502,4.94638134
14.20522217,0.6958293338,-1.180083455,-4.679026165,4.875454981
14.21528217,0.3426906183,-0.6976305686,-4.295187448,4.36494679
14.22534317,0.08817944728,-0.7092714979,-3.51069459,3.58271101
14.23540417,-0.2910749434,-1.083518296,-2.308697087,2.566869447
14.24546417,-0.9934442782,-0.8205868426,-1.280232664,1.816394774
14.25552517,-1.330491237,0.3757069945,-0.9664453447,1.686825208
14.26558617,-1.094383081,1.914318763,-1.406002765,2.615173881
14.27564717,-0.2870568647,3.391682994,-1.630765057,3.77429594
14.28570717,0.2616692593,4.311990591,-0.1524170315,4.322610856
14.29576817,0.3806374399,3.799995525,3.767462202,5.364571026
14.30582917,0.343958587,1.758190065,9.946134875,10.10619309
14.31588917,0.528311137,-0.6536251545,15.7764778,15.79884775
14.32595017,0.8792603626,-2.151064193,19.70504892,19.84160097
14.33601117,1.702324159,-2.398533708,22.03743308,22.23284346
14.34607117,2.878493926,-1.79889268,21.98398719,22.24449224
14.35613138,3.631959703,-1.162677171,19.14962191,19.52564899
14.36619237,4.081791266,-0.6523643486,14.86151017,15.42566316
14.37625337,4.099182347,0.2720772301,10.41121305,11.19243848
14.38631337,3.142951503,1.334572009,6.849447711,7.653375762
14.39637437,1.640899889,1.594113393,5.023549374,5.519945495
14.40643537,0.3316979259,1.169401761,5.65797695,5.787074145
14.41649537,-0.3409027955,0.4654373427,7.834350377,7.855564427
14.42655637,-0.2465019108,-0.3189875409,9.727456611,9.735806508
14.43661738,0.01879333483,-1.199501766,11.31610944,11.37952066
14.44667738,0.2484320401,-1.923361628,12.33102937,12.48260084
14.45673838,0.9882583096,-2.23944208,12.41194898,12.65101707
14.46679937,1.770158585,-1.989948551,11.8308679,12.12694487
14.47686037,2.027391342,-1.535592705,10.64402111,10.94365323
14.48692037,1.277929738,-1.304796963,7.907920629,8.116083304
14.49698137,-0.2307195449,-1.218671716,4.449933425,4.619556229
14.50704237,-1.341718037,-1.081219171,1.27805867,2.145384849
14.51710237,-2.139136165,-0.7407105146,-1.622418156,2.78510256
14.52716337,-2.520963294,-0.6948508023,-3.718072525,4.545562327
14.53722438,-2.617986728,-0.9022413088,-4.678655452,5.436700352
14.54728438,-2.486695687,-1.080839248,-4.556548047,5.302263575
14.55734538,-2.241473987,-1.273527808,-3.986321145,4.74729765
14.56740637,-1.810412571,-1.671737081,-3.125836118,3.980345461
14.57746637,-1.462672809,-2.05355617,-2.048732802,3.248662923
14.58752737,-1.158941458,-1.967460013,-1.20727637,2.582936399
14.59758837,-0.770723834,-1.424699091,-0.9127047551,1.859250574
14.60764937,-0.4649825755,-0.8950581506,-1.35346904,1.687962183
14.61770937,-0.4405830216,-0.5956867026,-2.562821172,2.66777218
14.62777037,-0.5324647066,-0.458030163,-4.093129894,4.152953482
14.63783138,-0.4947397868,-0.3485797877,-5.638989286,5.671373334
14.64789138,-0.6156143059,-0.2301198032,-6.975427142,7.006319998
14.65795238,-0.8791382289,-0.1244522841,-7.906881579,7.956578957
14.66801337,-1.233099282,-0.04971397765,-8.43759826,8.527371794
14.67807337,-1.545909532,-0.04963767149,-8.548136364,8.686940513
14.68813437,-1.686375147,-0.1786868173,-8.12746662,8.302499851
14.69819537,-1.888260208,-0.2495428649,-7.611585494,7.846275039
14.70825637,-1.867537237,-0.2175653196,-7.207601364,7.448795032
14.71831637,-1.691952368,-0.1702826873,-7.036404245,7.238969796
14.72837737,-1.415308024,-0.1658625577,-7.211207927,7.350654866
14.73843838,-0.9012362456,-0.2028573795,-7.717184454,7.772278545
14.74849838,-0.2374755275,-0.03626238495,-8.646510504,8.649847021
14.75855938,0.1111001672,0.2729942197,-9.582048637,9.586580473
14.76862037,0.05301677741,0.4130172005,-10.36483411,10.37319527
14.77868037,-0.2656370337,0.365664694,-10.93051129,10.9398515
14.78874137,-0.7633697909,0.1296191762,-11.25678826,11.28338675
14.79880237,-1.114177441,-0.1262255985,-11.14970469,11.20594659
14.80886337,-1.394846423,-0.4382442816,-10.03575866,10.14170136
14.81892337,-1.41415583,-0.5892258216,-8.394618301,8.533266678
14.82898437,-1.0496301,-0.6910417798,-6.852654909,6.966931993
14.83904538,-0.5182666437,-0.8427058361,-5.642450253,5.728524967
14.84910538,0.1776842756,-0.8272193393,-4.855821408,4.928982155
14.85916638,0.7571769317,-0.6346569331,-4.430676205,4.53949314
14.86922737,0.6519177675,-0.4462539437,-4.182114576,4.256080554
14.87928737,-0.05686651567,-0.1635920839,-3.650396267,3.654502575
14.88934837,-0.658389612,0.1541454685,-2.930442637,3.007446052
14.89940937,-0.7620182801,0.5507438336,-1.975357847,2.187699535
14.90947037,-0.3111736874,1.24668558,-0.8688243252,1.551099516
14.91953037,0.3669496562,2.111721641,0.2363368553,2.156356985
14.92959137,0.9172180746,3.00746947,1.584218881,3.520782736
14.93965238,1.097279207,3.641488326,3.767006119,5.353017279
14.94971238,0.9870607998,3.520244555,7.216300267,8.089585916
14.95977338,1.135251976,2.486272641,11.34514905,11.66973674
14.96983437,2.190436858,1.19767378,14.88969843,15.09753475
14.97989437,3.377495602,0.4074208304,17.57983395,17.9059775
14.98995537,4.678291462,0.3174184406,19.64042783,20.1924137
15.00001637,5.509771083,0.9233829403,20.88911945,21.62326351
15.01007737,5.496369849,1.446546189,21.31766188,22.06230463
15.02013737,4.892720262,1.173615411,20.59728024,21.20292522
15.03019837,3.851248709,0.5250369886,18.8584867,19.25487733
15.04025938,2.665552073,0.3009284154,16.42052054,16.63818561
15.05031938,1.404078154,0.5458808506,13.79065578,13.87269289
15.06038038,0.3528288862,0.9003782398,11.56661351,11.60696848
15.07044137,-0.3138879649,1.051589868,9.750910378,9.81247268
15.08050137,-0.5194254157,1.078853973,8.186166233,8.273273007
15.09056237,-0.4535329232,0.9997771052,6.664515483,6.754332905
15.10062337,-0.3201857816,0.8055714852,5.282022033,5.352683543
15.11068337,-0.2245924303,0.3071080452,3.647854482,3.667642217
15.12074437,-0.2320602749,-0.3866383642,1.926814263,1.978877055
15.13080537,-0.2876419334,-0.6675362653,0.3972112995,0.8283232242
15.14086638,0.001348879561,-0.615446637,-0.9590088558,1.139506195
15.15092638,0.5717339491,-0.4722521263,-2.100433298,2.227492272
15.16098738,0.8728401929,-0.3651888768,-2.999717524,3.145396341
15.17104837,0.9961558514,-0.4214654039,-3.713822769,3.868131219
15.18110837,0.8218798082,-0.6122252597,-4.183871664,4.307561757
15.19116937,0.3750227241,-0.9391869409,-4.356035328,4.471885277
15.20123037,-0.3467890779,-1.462626178,-4.264229364,4.52141461
15.21129037,-1.191922093,-2.22013165,-4.069410664,4.78641473
15.22135137,-1.935101814,-2.879650798,-4.143461557,5.404191098
15.23141237,-2.436113763,-2.999632155,-4.674347808,6.064814157
15.24147338,-2.55571622,-2.664179732,-5.627773157,6.730629224
15.25153338,-2.085442207,-2.067610099,-7.036218889,7.624464373
15.26159438,-1.106934714,-1.270107187,-8.852545334,9.011439154
15.27165537,0.1276767312,-0.6328491202,-10.76534616,10.78468717
15.28171537,1.216109832,-0.2755278182,-12.54016088,12.60200276
15.29177637,1.716404254,0.0613685748,-14.08522681,14.18955334
15.30183737,1.372352331,0.3831379285,-15.21896216,15.28551454
15.31189737,0.6011902847,0.3799549967,-15.27977788,15.29632007
15.32195837,-0.3655720156,-0.08468025416,-14.21583606,14.2207879
15.33201937,-1.170073753,-0.8865329102,-12.35611392,12.44301268
15.34208038,-1.744587834,-1.92027883,-10.24580234,10.56917797
15.35214117,-2.623986264,-2.56040978,-7.845185267,8.659557381
15.36220217,-3.094720745,-2.513181527,-5.914483775,7.132635993
15.37226317,-3.003137853,-2.360682781,-5.120236008,6.388151292
15.38232317,-2.661453175,-2.472030285,-5.4325165,6.535021213
15.39238417,-2.497836679,-2.529975315,-6.437328351,7.353853375
15.40244517,-2.328831097,-2.217486954,-7.07051047,7.767420484
15.41250517,-2.070041372,-1.575657973,-7.056351437,7.520629291
15.42256617,-1.563036027,-0.9226304036,-6.884836814,7.120063654
15.43262717,-0.7631158756,-0.3888953894,-6.511266392,6.567356812
15.44268817,0.006097147577,-0.06014329076,-6.04972578,6.050027802
15.45274817,0.5209608214,0.3635854241,-5.310234264,5.348100829
15.46280917,0.5771173709,0.9135157639,-3.848312822,3.99713486
15.47287017,0.5202480093,1.385372618,-1.701701723,2.255150557
15.48293017,0.8062543669,1.888069443,0.6674772084,2.158790899
15.49299117,1.482037472,2.321548974,3.039969172,4.102125946
15.50305217,2.490942227,2.223541454,5.255851066,6.226788915
15.51311217,2.969273703,1.874979573,7.023422257,7.852426054
15.52317317,2.671655397,1.546476274,8.54075133,9.081506742
15.53323417,2.177592133,1.461544004,9.861550223,10.20432218
15.54329517,1.693797457,1.950747794,10.75914109,11.06496651
15.55335517,1.669913042,2.650313644,11.22344393,11.65240171
15.56341617,2.466155003,3.135811176,11.85536656,12.50859499
15.57347717,3.672636736,3.539831851,13.15902785,14.11306785
15.58353717,4.673250578,3.820171342,14.97078294,16.14178806
15.59359817,5.015969628,3.718535625,16.28533057,17.44131447
15.60365917,4.649900014,3.710116511,15.96364484,17.03597638
15.61371917,3.933569904,4.222268575,13.71544187,14.87998219
15.62378017,3.144327646,4.737472594,10.30483115,11.76945147
15.63384117,2.411749731,5.265149893,7.392837063,9.39107981
15.64390217,2.015642239,5.459746399,6.145776823,8.46417256
15.65396217,1.869408054,5.13661289,6.786598914,8.714206979
15.66402317,1.665848351,4.364836557,8.97324239,10.11661642
15.67408417,1.250808598,3.172202784,11.58654784,12.07789234
15.68414417,0.2798041794,1.88664126,13.17264251,13.31000436
15.69420517,-1.376682487,0.8577692869,12.85373069,12.95567117
15.70426617,-3.187671009,0.2338362935,10.72158443,11.18786389
15.71432617,-4.253319337,0.2796527365,7.556859064,8.676119521
15.72438717,-4.499763689,0.6913744864,4.268357499,6.240572704
15.73444817,-4.321286202,1.097349008,1.600786382,4.737109491
15.74450917,-4.12491302,1.247983516,-0.4661552346,4.334705408
15.75456917,-3.746136529,1.385249535,-1.893958173,4.420354367
15.76463017,-3.173847606,1.542797498,-3.009579438,4.63800616
15.77469117,-2.565440432,1.601514653,-4.005340383,5.018872919
15.78475117,-1.758103673,1.461633759,-5.099604692,5.588673348
15.79481217,-0.965987727,1.211389301,-6.150331804,6.34248986
15.80487317,-0.6415935581,0.9017692924,-7.022320057,7.108994946
15.81493317,-0.5699189003,0.5256617635,-7.62120124,7.660537591
15.82499417,-0.7043664148,0.1500652814,-7.918498242,7.951180167
15.83505517,-0.9094632049,-0.2165216647,-8.064237168,8.118246489
15.84511617,-0.9840030715,-0.6461296088,-8.116895438,8.201813036
15.85517617,-1.103774075,-1.009279561,-7.984617972,8.123489804
15.86523717,-1.420515262,-1.116138012,-7.937111099,8.140108124
15.87529817,-1.528580285,-1.200612444,-8.118223341,8.347669025
15.88535817,-1.463405465,-1.307904174,-8.366330057,8.593465395
15.89541917,-1.34099766,-1.20370913,-8.607398479,8.79400358
15.90548017,-1.065666382,-0.88097864,-8.932179734,9.038561998
15.91554017,-0.7143136981,-0.6609650181,-9.445387512,9.495391728
15.92560117,-0.3013093797,-0.6551236497,-9.884963644,9.911230023
15.93566217,-0.05902588785,-0.672072389,-10.09088855,10.11341668
15.94572317,0.05274396826,-0.5260573277,-10.10341328,10.11723669
15.95578317,0.1435762242,-0.3580026488,-9.939349766,9.946831344
15.96584417,0.09655686278,-0.3967327049,-9.52762977,9.53637505
15.97590517,-0.1128286772,-0.5433636242,-8.996087462,9.013188335
15.98596517,-0.2342644559,-0.7414439017,-8.404131721,8.440026593
15.99602617,-0.3906518199,-0.8588080448,-7.585116318,7.64356917
16.00608717,-0.6286658759,-0.98448649,-6.634857236,6.736895796
16.01614717,-0.6093237251,-1.110133799,-5.984145749,6.116671709
16.02620817,-0.3975409363,-1.120969859,-5.751097952,5.872796598
16.03626917,-0.2458129261,-1.145455221,-5.706738635,5.825749523
16.04633017,0.2093221891,-1.266638326,-5.751945214,5.893476238
16.05639017,0.595061818,-1.319128489,-5.795492352,5.973435372
16.06645117,0.3566762445,-1.237528402,-5.687196656,5.831200587
16.07651217,-0.1022801357,-1.147901257,-5.451840379,5.57231568
16.08657217,-0.3012891886,-1.122392633,-5.035428577,5.167792696
16.09663317,-0.2276724694,-1.143331366,-4.858859037,4.996754197
16.10669417,-0.03827880641,-1.122516594,-4.984919744,5.109885871
16.11675417,0.08683145394,-0.8522243723,-4.959357471,5.032797692
16.12681517,0.2645484283,-0.04356234133,-4.406002125,4.414152044
16.13687617,0.6186940344,0.9995844394,-3.158278225,3.369966277
16.14693717,1.037882386,1.999047695,-1.086127909,2.500612999
16.15699717,1.521002586,2.618147526,2.018128476,3.638816824
16.16705817,1.909557668,3.122095655,5.714879129,6.78629024
16.17711917,2.011939344,3.319556127,8.738876631,9.562181633
16.18717917,2.179716426,2.881457295,10.52519166,11.1280555
16.19724017,2.270617387,2.355685312,11.21251315,11.68012875
16.20730117,2.350299587,1.908131824,10.81210517,11.22793363
16.21736117,2.600273465,1.857342909,10.70229446,11.16916521
16.22742217,3.230499524,1.929571371,11.88597556,12.46738898
16.23748317,3.629169412,1.883045222,14.00162098,14.58636761
16.24754417,2.935924109,1.703438931,16.16413183,16.51667377
16.25760417,1.787047829,0.9696025488,17.51805929,17.63564771
16.26766517,0.8680860411,0.3419097957,17.57169931,17.59645113
16.27772617,0.4179109546,0.5700766289,16.5013314,16.51646375
16.28778617,0.05051687345,1.288012092,15.16166413,15.21635916
16.29784717,-0.01187613353,1.612656522,14.5587086,14.64775745
16.30790817,0.5959191294,1.321628028,14.82883827,14.89953908
16.31796817,1.398086073,0.9811661486,15.60388203,15.69708464
16.32802917,2.106570097,0.7914394227,16.09228358,16.24886472
16.33809017,2.696070153,0.6372236415,15.67806682,15.92094933
16.34815038,3.016742862,0.663917862,13.99194618,14.32885488
16.35821038,2.95222293,1.039920433,11.3859135,11.80830559
16.36827137,2.632799479,1.42726061,8.970969577,9.457642471
16.37833237,1.839099158,1.406932618,6.681607479,7.07146545
16.38839237,0.9705840039,0.9576730594,4.638318434,4.834580529
16.39845337,0.1102356564,0.3123276354,2.884232091,2.903187078
16.40851437,-0.8505780888,-0.2674808252,1.569849933,1.805396879
16.41857537,-1.722650835,-0.6133050942,0.4596081072,1.885446538
16.42863537,-2.242852176,-0.7641183076,-0.7222223496,2.477068387
16.43869638,-2.455532366,-1.036032912,-1.910823882,3.279367516
16.44875738,-2.53181748,-1.203590139,-3.158434346,4.223083766
16.45881738,-2.398192523,-0.9535319151,-4.726944682,5.385587852
16.46887837,-2.101098565,-0.7356200749,-6.77398647,7.130402847
16.47893937,-1.61132248,-0.6565191608,-8.481418464,8.658050398
16.48899937,-1.164477456,-0.5524731477,-9.673727131,9.759212618
16.49906037,-0.8142051914,-0.450792114,-10.72400401,10.76431166
16.50912137,-0.6136400666,-0.4247345091,-11.52895627,11.55308557
16.51918237,-0.865841222,-0.6101185079,-12.07722045,12.12357948
16.52924237,-1.298336521,-0.9558539175,-12.26621766,12.37171896
16.53930338,-1.796962806,-1.257297838,-12.29877145,12.49278401
16.54936438,-2.094754921,-1.41691133,-12.409637,12.66470395
16.55942438,-2.119790944,-1.51001099,-12.56594476,12.83263865
16.56948537,-2.044062777,-1.558723705,-12.72709403,12.98409545
16.57954637,-1.888340607,-1.546633856,-12.75480983,12.98626506
16.58960637,-1.548267276,-1.521150082,-12.68420119,12.86856593
16.59966737,-1.115627697,-1.377214145,-12.63138095,12.75512167
16.60972837,-0.5658803746,-1.066602155,-12.77103001,12.82797989
16.61978937,0.1904878141,-0.8966731516,-12.86064677,12.89327514
16.62984937,0.9987933842,-0.7991339931,-12.61746458,12.68213767
16.63991038,1.362952639,-0.69208887,-12.16073038,12.25642649
16.64997138,1.431889996,-0.8270947936,-11.70515393,11.82137992
16.66003138,1.485370531,-1.166163573,-11.15929647,11.31795745
16.67009237,1.331508653,-1.539982941,-10.46816376,10.66428222
16.68015337,1.077935521,-1.799113412,-9.942750506,10.16154721
16.69021337,0.9992941251,-1.880077468,-9.491992745,9.727857231
16.70027437,0.9743678103,-2.04741981,-9.028932441,9.309293289
16.71033537,1.184656782,-2.255308499,-8.202319751,8.588822819
16.72039637,1.527737117,-2.292713138,-7.324768456,7.825774541
16.73045637,1.791591846,-2.029749232,-6.74589703,7.268893315
16.74051738,1.898587853,-1.636263778,-6.256518994,6.739883152
16.75057838,1.869622062,-1.397891069,-5.680582286,6.141547134
16.76063838,1.435433848,-1.386777997,-4.97291424,5.358497885
16.77069937,0.929695375,-1.202718685,-3.923780496,4.207959019
16.78076037,0.4351704734,-0.7015930805,-3.059360878,3.168800273
16.79082037,0.6076486805,0.367663857,-3.137355133,3.216739166
16.80088137,2.34578656,1.936253569,-3.476259753,4.619109691
16.81094237,4.587998758,3.645326731,-3.108133088,6.633146378
16.82100337,5.718703208,4.234431369,-0.8883323908,7.170990854
16.83106337,5.46329215,2.863190886,4.144204153,7.431006072
16.84112438,4.493569441,0.2491575334,10.22002781,11.16705934
16.85118538,3.714202546,-2.64168023,15.88490506,16.52585803
16.86124538,2.644068818,-4.966086447,20.86250292,21.60780282
16.87130637,1.591135845,-5.604290155,24.79992906,25.47501252
16.88136737,1.344305284,-5.109439709,26.87167943,27.3861404
16.89142737,1.587525043,-4.749018506,26.42813304,26.89832018
16.90148837,1.399578429,-4.068867165,24.17805897,24.55795259
16.91154937,0.3249851762,-3.053094709,21.75523008,21.97082243
16.92161037,-1.201668232,-2.213202407,20.09693399,20.25411137
16.93167037,-2.497216874,-1.265414066,18.37237492,18.58444309
16.94173138,-2.81205757,0.04176019292,15.85930478,16.10673647
16.95179238,-2.307919261,1.163675291,13.23453996,13.48457191
16.96185238,-1.399912597,1.91756733,11.05345485,11.30555986
16.97191337,-0.4724867824,2.125702041,9.791926256,10.03113517
16.98197437,0.4250224844,1.855779656,9.716871981,9.901624278
16.99203437,1.441736561,1.363164893,10.36967677,10.55779424
17.00209537,1.86903237,0.6562549397,11.43250177,11.6028466
17.01215637,1.306194009,-0.03727621906,12.14868278,12.21875712
17.02221737,0.261458321,-0.5906139872,12.19865074,12.21573843
17.03227737,-0.4764557628,-1.280937546,13.12944211,13.2003811
17.04233838,-0.9138725902,-2.246434911,14.19430779,14.40000022
17.05239938,-0.9574000675,-3.077136706,13.80417688,14.17535483
17.06245938,-0.5227099429,-3.134594955,11.65856916,12.08392097
17.07252037,0.1145873735,-2.505063545,8.375545269,8.742896098
17.08258137,0.3204573482,-2.092959972,4.745956904,5.196853018
17.09264237,-0.07785638904,-2.171067371,1.221746475,2.49244049
17.10270237,-0.7921572416,-2.241720593,-1.821150983,2.994898198
17.11276337,-1.10035455,-2.232637967,-4.328855131,4.993439613
17.12282437,-0.9040997002,-2.29221554,-6.56296338,7.010287917
17.13288437,-0.5195740081,-2.639776085,-8.766342173,9.16990349
17.14294538,-0.2338419032,-3.005935453,-10.85044771,11.26155164
17.15300638,0.09592640502,-3.262453973,-12.75859181,13.16945226
17.16306737,0.1635024936,-3.287573027,-14.76994745,15.13229055
17.17312737,-0.03106172517,-3.152014688,-16.48442125,16.78309582
17.18318837,-0.2444672625,-3.216474978,-16.98849802,17.29203691
17.19324937,-0.1265872853,-3.355577899,-16.2430248,16.58649396
17.20330937,-0.03310185526,-2.81241308,-15.02340671,15.28442057
17.21337037,-0.08185221177,-1.979109567,-13.8015164,13.94293474
17.22343137,0.6042067171,-1.916987432,-13.41858224,13.56828125
17.23349137,1.499907148,-1.977451443,-14.08611325,14.30309834
17.24355238,2.28063776,-1.608326074,-15.03973097,15.29645478
17.25361338,2.720367673,-1.337921879,-15.54997421,15.84273124
17.26367338,2.842287967,-1.359935184,-15.70005937,16.01311615
17.27373437,2.639751234,-1.606771007,-15.69398762,15.9953508
17.28379537,2.383840532,-2.036301914,-15.40766117,15.72339797
17.29385637,1.99206115,-2.590405412,-14.75166555,15.10927345
17.30391637,1.407801222,-3.21501639,-13.89652079,14.33288264
17.31397737,0.8634239099,-3.518106228,-12.76376309,13.2678642
17.32403837,0.4227373926,-3.835078819,-11.48882215,12.11938822
17.33409837,-0.008789753839,-4.055136149,-10.59342165,11.34305024
17.34415938,-0.2675534586,-3.965433721,-10.08533486,10.8402135
17.35422079,-0.2140188371,-3.732868027,-10.02075587,10.69559049
17.36428179,0.2582453491,-3.48979021,-10.13504906,10.7221521
17.37434179,0.7259390592,-3.144929032,-9.747693824,10.26815957
17.38440279,0.8187238466,-2.692251629,-8.790481233,9.229901835
17.39446379,0.7584001692,-2.313607724,-7.482602348,7.868753994
17.40452379,0.5461877563,-2.054874425,-6.054567275,6.417056557
17.41458479,0.4494475468,-1.743730339,-4.895386593,5.216072132
17.42464579,0.3347903721,-0.9307646115,-4.109583959,4.226947796
17.43470579,-0.09857835487,0.2877446982,-3.275722475,3.289813435
17.44476679,0.002066186741,1.964677323,-2.025235181,2.821619888
17.45482779,0.6494409601,3.556442913,-0.4415823108,3.642122279
17.46488879,1.08986903,4.571594102,1.823573484,5.041101804
17.47494879,1.424252802,3.859410545,5.41995902,6.804373709
17.48500979,2.347558851,2.205008558,10.36078433,10.84983627
17.49507079,3.891962579,0.4314739367,15.86812706,16.34414265
17.50513079,5.000766867,-0.7708801009,22.10254533,22.67431224
17.51519179,5.532086397,-1.368182097,27.92983835,28.50529376
17.52525279,5.296700299,-1.675922226,30.97364622,31.46792827
17.53531279,4.507946283,-1.575956327,29.49709095,29.88115782
17.54537379,3.475462192,-0.946180357,24.76246712,25.02306681
17.55543479,1.772672157,-0.1707535344,20.1973073,20.2756688
17.56549579,0.143634002,0.6631297304,17.05467096,17.06816256
17.57555579,-0.7172483426,1.890986034,15.21031413,15.34418226
17.58561679,-0.650377684,3.418261805,14.27261604,14.69064578
17.59567779,-0.1280115939,4.537913848,13.32373222,14.07589746
17.60573779,0.1404497728,4.853501233,11.95925404,12.9073606
17.61579879,0.09332318807,4.3911692,10.53595287,11.41478774
17.62585979,-0.3523448829,3.706477789,9.35333772,10.06712725
17.63591979,-0.8092531114,3.116699259,8.365298023,8.963644119
17.64598079,-1.111234976,2.434613221,7.770232149,8.218192767
17.65604179,-1.241873906,1.863083851,7.378623067,7.710863155
17.66610279,-1.215572838,1.226133202,6.931791126,7.143580906
17.67616279,-1.162354405,0.3210004814,6.266086208,6.381061467
17.68622379,-1.095199718,-0.4473881574,5.27668411,5.407680999
17.69628479,-1.197191092,-0.7939354529,4.286589117,4.520889987
17.70634479,-1.307034254,-1.026028838,3.544602009,3.914751221
17.71640579,-1.39163601,-1.191507306,2.770706061,3.32161896
17.72646679,-1.505314653,-1.252317911,1.849440397,2.693455427
17.73652779,-1.602995021,-1.330009134,0.7912943387,2.228152613
17.74658779,-1.522584258,-1.367019378,-0.5196151578,2.111161935
17.75664879,-1.368496531,-1.235125781,-2.048708829,2.755998243
17.76670979,-0.9264834995,-0.9463968502,-4.052471865,4.263398514
17.77676979,-0.3006224963,-0.5387576628,-6.372792047,6.402586366
17.78683079,0.233554074,-0.144688456,-8.861326683,8.865584743
17.79689179,0.4149904165,0.1692363646,-11.1688017,11.17779001
17.80695179,0.1671113951,0.33461364,-13.1570281,13.16234329
17.81701279,-0.2242885213,0.2489014254,-14.58371598,14.58756419
17.82707379,-0.6191354261,0.1234730217,-15.30628448,15.3192989
17.83713479,-0.8895578941,-0.06884635963,-15.33113281,15.35707284
17.84719479,-1.205646897,-0.197795518,-14.88829744,14.93834355
17.85725579,-1.341688363,-0.2321771461,-14.35863559,14.42305273
17.86731679,-1.26480654,-0.3276072139,-13.89357496,13.95487324
17.87737679,-1.081831082,-0.476888676,-13.5280199,13.57958408
17.88743779,-0.7496558044,-0.6303204918,-13.13691134,13.1733719
17.89749879,-0.3338175416,-0.7605426621,-12.66196423,12.68917639
17.90755879,0.1351923767,-0.9270444667,-12.09159056,12.1278296
17.91761979,0.6021368027,-1.106686865,-11.56605452,11.63447212
17.92768079,1.080546815,-1.254240037,-11.22887833,11.35026027
17.93774179,1.381838415,-1.333167508,-11.07487203,11.24008912
17.94780179,1.180235483,-1.573237518,-10.72202063,10.90090632
17.95786279,0.755742829,-2.006320901,-10.02753279,10.25416426
17.96792379,0.3672681467,-2.631385038,-8.912043677,9.299655672
17.97798379,0.04105973303,-3.135160966,-7.805413676,8.41162308
17.98804479,-0.2047535585,-3.399111297,-7.078012447,7.854561849
17.99810579,-0.3365841517,-3.355832253,-6.651756274,7.457932725
18.00816679,-0.3558515313,-2.81449732,-6.826257069,7.392280504
18.01822679,-0.001407424808,-2.118351945,-7.470185786,7.764733905
18.02828779,0.5020029058,-1.618411352,-7.793585343,7.975665159
18.03834879,0.9653914572,-0.8674620701,-7.207683225,7.323603525
18.04840879,1.378987167,0.1013799021,-6.039885501,6.196135922
18.05846979,2.023223447,1.091293924,-4.770180749,5.295184597
18.06853079,2.884565675,2.316769753,-3.739423048,5.260363671
18.07859179,3.787276077,3.138836233,-2.617356398,5.571921347
18.08865179,5.327927939,2.461819877,0.2491732478,5.874475341
18.09871279,7.239723043,0.03027213179,6.203272494,9.533891954
18.10877379,8.848345279,-2.705076035,14.33487953,17.06163596
18.11883379,9.24229851,-4.381393825,21.82601413,24.10376706
18.12889479,8.507732688,-4.356780263,26.19156171,27.88119356
18.13895579,7.47507055,-3.944174414,26.91852732,28.21418623
18.14901579,5.899147698,-3.734440344,24.99739187,25.95410543
18.15907679,3.948991351,-2.645009927,21.38476453,21.9065918
18.16913779,2.104747082,-1.124287642,17.30191462,17.46568729
18.17919879,-0.02394972023,0.5041846481,14.20687111,14.21583492
18.18925879,-1.390641252,2.071558578,12.91022765,13.14911465
18.19931979,-1.775357783,2.557687024,13.99813253,14.34020127
18.20938079,-1.55579425,1.921410266,17.07645651,17.25449739
18.21944079,-1.352481153,0.7529225707,19.72804017,19.78867521
18.22950179,-1.742554026,-0.03287333876,20.31726409,20.39188063
18.23956279,-2.312953713,0.1887528356,18.82420564,18.96671033
18.24962279,-2.344224038,0.7851820249,16.07946414,16.26840694
18.25968379,-1.819149773,1.169219621,13.04225427,13.22031683
18.26974479,-1.000575981,1.761314671,10.38915969,10.58480141
18.27980579,-0.1060179135,2.232675097,8.150554935,8.451486475
18.28986579,0.06725511298,2.314571199,6.223074675,6.639911256
18.29992679,-0.5235270913,1.93282637,4.274474271,4.720278454
18.30998779,-1.28977649,1.249311857,2.235134436,2.867076814
18.32004779,-2.131331448,0.65760762,0.1362956733,2.234635995
18.33010879,-2.726837325,0.3430327169,-2.041305669,3.423483909
18.34016979,-2.86501434,0.1188780969,-4.315731055,5.181503036
18.35023092,-2.766411281,-0.1374259766,-6.457039315,7.026042555
18.36029092,-2.566194431,-0.32790396,-8.343616548,8.735491512
18.37035192,-2.337379434,-0.4929702732,-9.964493963,10.24682889
18.38041292,-1.880915667,-0.7240862958,-11.49722577,11.67254664
18.39047292,-1.024765035,-0.7627396072,-12.7886348,12.85227977
18.40053392,-0.282637265,-0.7571008448,-13.64413859,13.66805046
18.41059492,-0.02878131106,-0.6001953444,-14.3305713,14.34316341
18.42065492,0.12360579,-0.5435910809,-14.90455738,14.91497906
18.43071592,0.2641432893,-0.8657054204,-15.1492575,15.17627163
18.44077692,0.3512391014,-1.21245291,-15.09890245,15.15157636
18.45083792,0.2875333214,-1.446878603,-14.9087089,14.98151308
18.46089792,-0.001689297147,-1.77692893,-14.73574592,14.84249599
18.47095892,-0.3757528221,-2.32506432,-14.47002856,14.66045159
18.48101992,-0.6160306276,-2.817244635,-14.03412682,14.32735414
18.49107992,-0.7239504211,-3.049944814,-13.71813744,14.07172919
18.50114092,-0.6411719739,-3.216036729,-13.54842902,13.93965289
18.51120192,-0.6014431768,-3.364389068,-13.38695231,13.81634322
18.52126192,-0.6668766993,-3.541738043,-13.03143342,13.52060982
18.53132292,-0.6860108355,-3.746941106,-12.22738864,12.80699853
18.54138392,-0.5833298914,-3.995762059,-10.96066889,11.68086687
18.55144492,-0.6768994848,-4.475191643,-9.264037288,10.31057322
18.56150492,-1.029065004,-4.908467984,-7.401811954,8.940853032
18.57156592,-1.093426769,-4.938565357,-5.828186474,7.717043958
18.58162692,-0.9902374459,-4.847705765,-4.764753363,6.869038943
18.59168692,-0.6843558542,-4.457238644,-3.89735342,5.960258631
18.60174792,0.1331245089,-3.661321789,-3.022685387,4.749697499
18.61180892,1.221077188,-2.726799026,-2.295771816,3.767894725
18.62186992,2.001039111,-1.610137103,-2.0313923,3.274637948
18.63192992,2.538278654,-0.3841481812,-2.081502938,3.305008749
18.64199092,3.223910882,0.787466459,-2.272234434,4.022033581
18.65205192,3.992059017,2.102345776,-2.253514574,5.043284733
18.66211192,4.212878532,3.210430711,-1.713611332,5.567016676
18.67217292,3.86864973,3.157061712,-0.386483413,5.008279028
18.68223392,3.280140631,1.866053798,1.797227685,4.179893143
18.69229492,2.294133427,0.5214390506,4.050195544,4.683911913
18.70235492,1.28469599,-0.3693648121,6.232408,6.37414964
18.71241592,0.505858779,-0.7688928515,8.660685325,8.709452314
18.72247692,0.07493177623,-1.105886016,11.88562356,11.93719591
18.73253692,-0.2659186502,-1.992431425,15.41328619,15.54380542
18.74259792,-0.8762687809,-3.124275497,18.02240971,18.31218709
18.75265892,-1.353954359,-3.587263587,19.31746038,19.69431208
18.76271892,-1.692533581,-3.326130152,19.27824662,19.63615554
18.77277992,-1.855322696,-2.336769423,18.14791434,18.3915608
18.78284092,-1.855100209,-0.8908784147,16.50623604,16.63402806
18.79290192,-1.592064967,0.5744319275,14.900469,14.99628685
18.80296192,-1.093177604,1.782517552,13.83119803,13.98836821
18.81302292,-0.3166438307,2.497145246,13.55718581,13.78888265
18.82308392,0.5445102267,2.747927063,14.01399603,14.29124484
18.83314392,1.136976612,2.675543503,14.50478792,14.7932458
18.84320492,1.581492032,2.411474473,14.6947698,14.97506547
18.85326592,1.556746177,2.347409309,14.53175528,14.80221945
18.86332692,1.317743722,2.418951893,13.79017397,14.06259844
18.87338692,0.9604756299,2.441283579,12.55588521,12.82702742
18.88344792,0.5118757832,2.464396745,11.0966915,11.37856891
18.89350892,0.5616952666,2.370139629,9.604918851,9.908962083
18.90356892,0.7749633577,2.384079245,8.224316391,8.597894054
18.91362992,0.7005986153,2.133371103,7.015628504,7.366217074
18.92369092,0.6905765607,1.390876895,5.702313462,5.909975748
18.93375092,0.5655550501,0.6531017556,4.193140671,4.281217479
18.94381192,0.3674055563,0.146241312,2.633808709,2.663329059
18.95387292,0.01685516557,-0.3755875652,1.065399529,1.129790367
18.96393392,-0.5079489759,-0.8561202259,-0.4984856594,1.113302275
18.97399392,-0.922494529,-1.358668677,-1.845864825,2.470666647
18.98405492,-1.259537468,-1.850620073,-2.86535611,3.636137363
18.99411592,-1.385435768,-2.199450194,-3.523009411,4.378196973
19.00417592,-1.410808884,-2.495194907,-3.956722539,4.885901409
19.01423692,-1.394492959,-2.742926524,-4.275018062,5.267260764
19.02429792,-1.411881263,-2.901283449,-4.648499022,5.658568503
19.03435792,-1.432280006,-3.010680469,-5.279952704,6.244479438
19.04441892,-1.4029378,-3.054075872,-6.173416026,7.0289885
19.05447992,-1.228086464,-3.030607195,-7.274990525,7.976105783
19.06454092,-0.9886877145,-3.056222385,-8.559218591,9.142112533
19.07460092,-0.8764444166,-2.95292752,-9.757911834,10.23253532
19.08466192,-0.6825114231,-2.75185873,-10.87854592,11.24194421
19.09472292,-0.3819064318,-2.497463042,-11.85529756,12.1215203
19.10478292,-0.03754617769,-2.084965805,-12.77927692,12.9482976
19.11484392,0.3220123786,-1.664046239,-13.54356648,13.64921004
19.12490492,0.6720754588,-1.306350276,-14.12220343,14.19841069
19.13496592,0.8466911522,-1.03958261,-14.48884256,14.55074489
19.14502592,0.8952628762,-0.916851308,-14.47612955,14.53273679
19.15508692,0.9431232865,-0.9767362981,-14.07795989,14.14328286
19.16514792,0.7471687643,-1.148593714,-13.52000688,13.58926468
19.17520792,0.556731821,-1.376047187,-12.81382929,12.89952236
19.18526892,0.4007925729,-1.820951447,-11.99015774,12.13426477
19.19532992,0.1188185649,-2.419072345,-11.11043479,11.37135833
19.20539092,-0.3887198999,-2.920955237,-10.18130989,10.59915816
19.21545092,-0.7767773833,-3.225282639,-9.338592796,9.910355524
19.22551192,-1.037490257,-3.402989463,-8.582680544,9.290808826
19.23557292,-1.093366762,-3.589215387,-8.010213574,8.845419123
19.24563292,-1.011982729,-3.643401827,-7.684320763,8.564302161
19.25569392,-1.041716552,-3.465754645,-7.578106676,8.397876483
19.26575492,-0.9152034165,-3.219148909,-7.459939125,8.176258848
19.27581492,-0.944054748,-2.840887266,-6.963867196,7.580061092
19.28587592,-0.9710414024,-2.105600483,-6.284130716,6.698266466
19.29593692,-0.6800914067,-1.090751448,-5.803275581,5.943927196
19.30599792,0.1639065179,0.01595135048,-5.612378023,5.614793573
19.31605792,1.517022386,1.329239641,-5.064278739,5.451160802
19.32611892,3.007635823,2.806901495,-3.940797647,5.696881195
19.33617992,4.286414285,3.936235357,-2.243580739,6.23706267
19.34623992,5.067003542,4.465058418,0.09235969484,6.75424325
19.35630104,5.091847191,4.320631314,2.967954279,7.30777089
19.36636204,4.728152132,3.474410278,5.758361363,8.221050721
19.37642304,4.469185383,1.84807171,8.592700333,9.860197059
19.38648304,3.630804293,0.05561140627,11.78416151,12.33094866
19.39654404,2.615083878,-1.412817548,14.68032133,14.97820255
19.40660504,2.05673384,-2.278699262,16.76697976,17.04565149
19.41666504,2.028073566,-2.28480127,18.34263481,18.59531261
19.42672604,1.300062619,-2.090834071,19.87168989,20.02363126
