Time (s),Linear Acceleration x (m/s^2),Linear Acceleration y (m/s^2),Linear Acceleration z (m/s^2),Absolute acceleration (m/s^2)
0.007025500003,-0.8604894117,0.3305755529,-0.3928159475,1.002011274
0.0170855,-0.9208541657,0.5306523621,-0.9228239465,1.407539825
0.02714650001,-1.043377453,0.4773576227,-1.332337203,1.758302941
0.03720650001,-1.034462058,0.5137340283,-1.79196753,2.131943252
0.04726750002,-1.095912347,0.5475098848,-2.207216905,2.524400406
0.05732850003,-1.308062633,0.6400441191,-2.310509723,2.731142528
0.06738850003,-2.112928652,0.7125791216,-2.364080159,3.249786376
0.07744950004,-2.619428067,1.221599417,-2.50224928,3.822951738
0.08750950004,-0.4712313487,1.738357625,-2.307977879,2.927577174
0.09757049999,-0.03939225331,1.261076309,-2.067997039,2.422493954
0.1076305,-0.05686738819,1.004663331,-2.003323326,2.241848937
0.1176915,0.04400833771,1.089740319,-1.733711135,2.04822484
0.1277515,0.1397344208,1.205709316,-1.277963945,1.762513123
0.1378125,-0.02406480074,1.345052558,-1.050984973,1.707136466
0.1478735,-0.314567192,1.472200263,-0.9399136037,1.774757368
0.1579335,-0.5814092638,1.708706687,-0.8990345496,2.016427136
0.1679945,-0.710630537,1.900504424,-0.7082211918,2.149067258
0.1780545,-0.7668320004,1.945633234,-0.4704570311,2.14356008
0.1881155,-0.696708755,1.931526242,-0.1753387016,2.06081061
0.1981755,-0.5789347221,1.781015987,0.242007485,1.888319618
0.2082365,-0.5607989249,1.64106288,0.665978567,1.857716411
0.2182965,-0.4723210504,1.562938817,0.8599716407,1.845376965
0.2283575,-0.3082203318,1.522279618,0.7203699517,1.712094587
0.2384175,-0.2055123809,1.480746261,0.3870973706,1.544243893
0.2484785,-0.1311159904,1.531697144,0.1408208334,1.543735097
0.2585395,-0.06520295955,1.641161114,0.008850345612,1.642479697
0.2685995,-0.01733078174,1.65058127,-0.1746943384,1.659890659
0.2786605,0.07471338272,1.633446005,-0.2004250109,1.647391309
0.2887205,0.2712462311,1.574270428,-0.07003268659,1.599001713
0.2987815,0.4165061245,1.466262123,0.06222840786,1.525540671
0.3088415,0.3670688298,1.416145345,0.09051606774,1.465742243
0.3189025,0.1340330201,1.486137686,-0.05409902394,1.493149951
0.3289625,-0.1542956323,1.576293711,-0.3039540571,1.612729697
0.3390235,-0.2381158341,1.665197994,-0.5074126035,1.757000586
0.3490845,-0.2843452732,1.649204397,-0.7042193574,1.81566855
0.3591445,-0.2919010453,1.53101068,-0.6643004161,1.694253513
0.3692055,-0.1974512449,1.320419116,-0.3267997134,1.374515074
0.3792655,-0.132794123,1.102946548,0.1128401524,1.116628079
0.3893265,-0.1977401522,0.7753220844,0.6392602998,1.024148052
0.3993865,-0.3824453989,0.5083138056,1.215901598,1.372247829
0.4094475,-0.6535013397,0.2972547559,1.984007633,2.109907742
0.4195075,-0.8865155147,-0.004991475642,2.884351959,3.017518997
0.4295685,-0.9745672734,-0.2969011456,3.547941939,3.691317334
0.4396285,-0.9787753683,-0.5516657934,3.867124484,4.027032176
0.4496895,-1.103735337,-0.6779384619,3.9223643,4.130711071
0.4597505,-1.298044891,-0.6972649714,3.939734623,4.206258181
0.4698105,-1.146334496,-0.6333569509,3.729482782,3.952754182
0.4798715,-0.741549517,-0.5681166422,3.290876704,3.420894866
0.4899315,-0.2592435419,-0.5313693769,2.576765612,2.643724957
0.4999925,0.1479135791,-0.4636057024,1.708462858,1.776416058
0.5100525,0.4914629341,-0.2888682407,0.863986339,1.035110173
0.5201135,0.7213314532,-0.08107939258,0.01902917862,0.7261232974
0.5301735,0.717730884,0.06823861465,-0.7060325789,1.009096692
0.5402345,0.7014838837,0.148843798,-1.195285485,1.393894367
0.5502955,0.7124652471,0.2464406978,-1.401764118,1.591628848
0.5603555,0.7521978083,0.2789865924,-1.424847756,1.63518384
0.5704165,0.8103450058,0.1519939855,-1.302443898,1.541467258
0.5804765,0.9338879018,-0.09035263807,-1.047719888,1.406423541
0.5905375,1.068688369,-0.3623559009,-0.6472633839,1.300902193
0.6005975,1.218618506,-0.6512576169,-0.1909501827,1.394858244
0.6106585,1.276442061,-0.8007734062,0.08922500253,1.509471259
0.6207185,1.179084239,-0.8105957052,0.125649063,1.436347008
0.6307795,1.031090772,-0.7515426278,-0.04718761504,1.2767894
0.6408405,0.8809635103,-0.5858934934,-0.3882276374,1.126982072
0.6509005,0.6524274985,-0.3572255538,-0.8912682778,1.160875049
0.6609615,0.6728658561,-0.247336345,-1.406374648,1.57854787
0.6710215,0.9317075481,-0.2008645754,-1.737287877,1.981563701
0.6810825,1.226374253,-0.1241724949,-1.961978248,2.317060911
0.6911425,1.392093408,-0.05503004685,-2.072062608,2.496877213
0.7012035,1.570137909,0.02662544265,-2.199177568,2.702299751
0.7112635,1.664593977,0.1481617203,-2.268981628,2.817996209
0.7213245,1.648431542,0.2760583068,-2.306014384,2.848023363
0.7313855,1.416546025,0.4032864104,-2.248144491,2.687637666
0.7414455,1.070494428,0.5854072975,-2.027770534,2.366540378
0.7515065,0.8535306403,0.7811258845,-1.625294402,1.995057416
0.7615665,0.7669241671,0.9269712304,-1.175549378,1.682071544
0.7716275,0.7525664753,0.9722121611,-0.6901486176,1.409914146
0.7816875,0.7582675105,0.9965681532,-0.3795568013,1.308503369
0.7917485,0.7513441148,1.027381956,-0.335017975,1.316156794
0.8018085,0.6413525797,1.102205852,-0.4060546285,1.338309094
0.8118695,0.518554144,1.209979392,-0.4551402497,1.392875147
0.8219295,0.3976284984,1.301076673,-0.3540296119,1.405790133
0.8319905,0.4385257519,1.276407416,-0.05704134285,1.350842123
0.8420515,0.5157326066,1.127899687,0.4388762194,1.315579781
0.8521115,0.5879092845,0.9646145815,0.8982095075,1.443225186
0.8621725,0.6251405165,0.7919268613,1.10109912,1.493441693
0.8722325,0.5210433768,0.6853745122,1.164712733,1.448371559
0.8822935,0.3698503137,0.6643080175,1.131651991,1.363352715
0.8923535,0.2605609196,0.6352344918,1.160676985,1.34854956
0.9024145,0.2035350718,0.601177969,1.265493588,1.415738499
0.9124745,0.2745747221,0.6143590549,1.460442097,1.60801724
0.9225355,0.2931654326,0.6449858934,1.616504867,1.764947806
0.9325965,0.2689194047,0.7725310622,1.669953681,1.859534131
0.9426565,0.3141995484,0.9527238299,1.618521572,1.904210107
0.9527175,0.350503814,1.113961971,1.518842332,1.915893063
0.9627775,0.2274012865,1.243145822,1.498381171,1.960170659
0.9728385,0.09233542889,1.281742123,1.550702056,2.013967619
0.9828985,-0.02593835827,1.22022459,1.689715515,2.084408639
0.9929595,-0.05133307166,1.11585296,1.715251476,2.04691244
1.0030195,-0.0155888962,0.9984937875,1.640209479,1.920291643
1.0130805,-0.04362563744,0.7857903546,1.460285976,1.658856476
1.0231405,-0.1172623285,0.5863239947,1.311731615,1.441584583
1.0332015,-0.2128859391,0.2421109807,1.26479543,1.305237768
1.0432625,-0.3694111513,-0.1732613321,1.357135829,1.417145634
1.0533225,-0.4109587613,-0.6245245855,1.513633048,1.688195209
1.0633835,-0.2795426627,-1.063654135,1.581741416,1.926502044
1.0734435,-0.05074930027,-1.332861844,1.476645901,1.989869167
1.0835045,-0.02674085207,-1.367923357,1.198326622,1.818767736
1.0935645,-0.1022225589,-1.266868999,0.7907604879,1.496899683
1.1036255,-0.1241176041,-1.10441683,0.2371496183,1.136389746
1.1136855,-0.2038666821,-0.9604747528,-0.3197836393,1.032634955
1.1237465,-0.3733568524,-0.8779736097,-0.6589320874,1.159493206
1.1338075,-0.6798442888,-0.7869483957,-0.5909997207,1.196142426
1.1438675,-1.02774251,-0.7371899061,-0.32013915,1.304681072
1.1539285,-1.208141904,-0.8449032198,0.1664018172,1.483629966
1.1639885,-1.238043834,-1.005198936,0.6271770287,1.7136302
1.1740495,-1.085540556,-1.129508694,0.8128886908,1.764929521
1.1841095,-0.8591531767,-1.127182379,0.8222196776,1.638514417
1.194170083,-0.6630384408,-1.069981992,0.900820874,1.547888783
1.204230083,-0.4077558759,-1.007070922,1.076484681,1.529469177
1.214291083,-0.1774185562,-0.9312728807,1.262377607,1.578715853
1.224352083,-0.005618077889,-0.8274339321,1.333615404,1.56946122
1.234412083,0.1433564054,-0.6509826516,1.18386178,1.358623636
1.244473083,0.1644468372,-0.4234117958,0.730420146,0.8601359781
1.254533083,0.179160661,-0.1654370997,0.2361801499,0.3394834895
1.264594083,0.150007796,0.08878945805,-0.3854759377,0.4230574491
1.274654083,0.06477684371,0.3593209767,-0.9837618738,1.049330753
1.284715083,-0.03602356274,0.5344512981,-1.509979123,1.60217753
1.294775083,-0.1306583361,0.63338626,-1.845857223,1.95587286
1.304836083,-0.1263962641,0.7097468034,-2.039860822,2.163503805
1.314896083,-0.06385170456,0.7431622522,-2.303285488,2.421051675
1.324957083,-0.1757601397,0.7422280864,-2.441953962,2.558306727
1.335018083,-0.410911874,0.7209451716,-2.439554265,2.576826637
1.345078083,-0.4990555802,0.6746411439,-2.468604986,2.607337286
1.355139083,-0.4020743923,0.6059811643,-2.651422861,2.749349046
1.365199083,-0.2927495494,0.4946256199,-2.912874092,2.969038949
1.375260083,-0.2463849299,0.4408056544,-3.224024903,3.26333445
1.385320083,-0.2255861646,0.4198252599,-3.479632427,3.512119615
1.395381083,-0.09280715302,0.4084592959,-3.568534078,3.593033207
1.405441083,0.09301366936,0.4123633356,-3.608723745,3.633398152
1.415502083,0.1915012097,0.4228254662,-3.63654012,3.666043935
1.425563083,0.2407948456,0.4970649321,-3.522417088,3.565456191
1.435623083,0.1917209188,0.6951590967,-3.141801941,3.223495388
1.445684083,0.07682850335,0.8878533576,-2.598512576,2.747080962
1.455744083,-0.1504699087,1.057971957,-2.096582322,2.353211272
1.465805083,-0.2076603921,1.236992066,-1.742659714,2.147122514
1.475865083,-0.1885589638,1.333135494,-1.189228354,1.796404411
1.485926083,-0.1775940458,1.285118598,-0.530583365,1.401637672
1.495986083,-0.09650822125,1.254086255,0.1377013439,1.265309382
1.506047083,0.04541207146,1.138788883,0.8269980222,1.408129293
1.516107083,0.2546224874,0.8699464059,1.52963103,1.778035559
1.526168083,0.6337822627,0.7622550192,2.125440086,2.345252274
1.536229083,1.004553476,0.7657170095,2.45466347,2.760583811
1.546289083,1.122981155,0.7577427229,2.637190738,2.964799437
1.556350083,1.031456589,0.7908854721,2.902594687,3.180323638
1.566410083,0.8217118469,0.9536758297,3.289659898,3.522296154
1.576471083,0.6541348124,1.080029409,3.781201404,3.986457066
1.586531083,0.4600769443,1.239902371,4.131338525,4.33785508
1.596592083,0.1737108733,1.373595449,4.173436139,4.397102356
1.606652083,-0.03186970074,1.550164112,3.816187634,4.119139778
1.616713083,-0.05823735427,1.741634259,3.047237846,3.510319069
1.626773083,0.0394463766,1.8776709,2.211560801,2.901414346
1.636834083,0.1842184295,1.873153342,1.455483658,2.379300853
1.646895083,0.2816552982,1.643582153,0.9791197693,1.933744431
1.656955083,0.3453308189,1.221391768,1.037164494,1.639134349
1.667016083,0.3204427667,0.5523828813,1.450047501,1.584439387
1.677076083,0.4515706708,-0.08792180434,1.978536394,2.03131794
1.687137083,0.6573181097,-0.6528921329,2.480457877,2.64783053
1.697197083,0.725841703,-1.141129231,2.879956607,3.181693285
1.707258083,0.7343472091,-1.464747694,3.007020696,3.424459826
1.717318083,0.6819098908,-1.486566871,2.92147827,3.34812148
1.727379083,0.5175306255,-1.48559331,2.463206252,2.922706018
1.737440083,0.3825392468,-1.49730119,1.781820856,2.35862941
1.747500083,0.3804602692,-1.441993254,1.166201434,1.893177315
1.757561083,0.3984843115,-1.326164882,0.6517493677,1.530451005
1.767621083,0.3996803229,-1.204430092,0.07139157951,1.271020442
1.777682083,0.4429869582,-1.118940363,-0.6289200836,1.357867981
1.787742083,0.5868964737,-1.013313775,-1.229537889,1.697944551
1.797803083,0.8488350338,-0.9208842789,-1.694028422,2.106722825
1.807863083,1.007472772,-0.8317800213,-2.082698693,2.458555112
1.817924083,1.002124543,-0.7927703952,-2.416388181,2.733435629
1.827984083,0.9207168292,-0.7500765847,-2.55303878,2.815731055
1.838045083,0.8406340215,-0.7474222411,-2.431746477,2.679308959
1.848106083,0.7239329526,-0.8245500123,-2.15199697,2.415585353
1.858166083,0.5950581634,-0.9060539127,-1.879617877,2.169790606
1.868227083,0.7141137964,-0.9890536771,-1.706240332,2.097484627
1.878287083,0.9502254608,-0.9926956885,-1.794243851,2.260018618
1.888348083,1.159097359,-0.8968032521,-2.033812462,2.506821871
1.898408083,1.219759444,-0.7254446771,-2.332591149,2.730396409
1.908469083,1.039818619,-0.4340320205,-2.538603174,2.77742914
1.918529083,0.8346556089,-0.08707479861,-2.580377437,2.713407401
1.928590083,0.6941041128,0.2176058847,-2.553083219,2.654687696
1.938650083,0.5554316561,0.4298448294,-2.612539462,2.705297274
1.948711083,0.5318425263,0.5225952644,-2.85062405,2.946526728
1.958772083,0.5465147253,0.6570529385,-3.004490021,3.123676872
1.968832083,0.6407463697,0.8643450657,-3.038830719,3.223684296
1.978893083,0.7529437669,1.099197094,-3.008967234,3.290751037
1.988953083,0.7611197823,1.316960195,-2.796241436,3.183182943
1.999014083,0.5882782803,1.550663318,-2.393857105,2.912246538
2.009074083,0.3687444956,1.675046167,-1.83132046,2.509080866
2.019135083,0.2305692349,1.794288874,-1.336057786,2.248929778
2.029195083,0.2389549644,1.864997207,-0.8710743338,2.072217303
2.039256083,0.3195238037,1.821159315,-0.4455016994,1.901890764
2.049316083,0.4308583346,1.735015795,-0.05230392873,1.78847824
2.059377083,0.4978498477,1.598500852,0.4392136037,1.730886488
2.069438083,0.5688024475,1.458387093,0.9597549605,1.836180471
2.079498083,0.6219263752,1.302709069,1.460384209,2.053427713
2.089559083,0.7176811827,1.169531862,1.794985862,2.259390471
2.099619083,0.6730281895,1.094722877,1.954060534,2.338747034
2.109680083,0.4578998797,1.129744045,1.968435329,2.315325366
2.119740083,0.3184423611,1.137260202,2.022112184,2.341730981
2.129801083,0.3407500736,1.118825977,2.173577873,2.468263145
2.139861083,0.4231082888,0.9901723225,2.457054981,2.68264441
2.149922083,0.4432986148,0.6939931619,2.84442951,2.961236128
2.159983083,0.3430021287,0.4099841767,3.313110741,3.35595594
2.170043083,0.1984924879,0.2439832227,3.709802223,3.723111551
2.180104083,0.03764702389,0.1885334005,3.893407134,3.898151004
2.190164375,-0.08102408158,0.2813227195,3.767558681,3.778915954
2.200225375,-0.2206226642,0.4299496773,3.435690016,3.469509615
2.210285375,-0.4018035565,0.7112437637,2.980305353,3.090231995
2.220346375,-0.5329680788,0.8720464334,2.408822469,2.616666895
2.230406375,-0.6096153915,0.8510521518,1.884926564,2.156123569
2.240467375,-0.5414686147,0.7026385626,1.725057841,1.939771575
2.250527375,-0.4268405665,0.3906936275,1.869774089,1.957265829
2.260588375,-0.4076178816,-0.04531847946,2.024637596,2.065759787
2.270649375,-0.3373328511,-0.6282770361,2.084708381,2.203300824
2.280709375,-0.1351306886,-1.114274066,1.998066679,2.29175423
2.290770375,0.006870569754,-1.374368451,1.548788263,2.070671612
2.300830375,0.03006223502,-1.520823369,0.6857029796,1.668531101
2.310891375,-0.02774393278,-1.619636928,-0.3655053574,1.660598588
2.320951375,-0.1396138311,-1.603394386,-1.168497636,1.988907314
2.331012375,-0.1933945198,-1.628570304,-1.593601323,2.286746128
2.341072375,-0.2376813677,-1.822529903,-1.612431697,2.445003815
2.351133375,-0.3359853603,-2.038571365,-1.02163312,2.304863034
2.361193375,-0.3444410188,-2.200619199,-0.1957653648,2.235998335
2.371254375,-0.4329398337,-2.349302199,0.2582925653,2.402784378
2.381315375,-0.4439331108,-2.40794831,0.4761487108,2.494395571
2.391375375,-0.331753109,-2.216107158,0.4187816781,2.279598463
2.401436375,-0.331033536,-1.89683705,-0.07894676685,1.927123916
2.411496375,-0.3341018625,-1.467805057,-0.7377613252,1.676415077
2.421557375,-0.3419541615,-0.9501659654,-1.215156662,1.579985356
2.431617375,-0.5472411322,-0.4408452693,-1.451127482,1.612323906
2.441678375,-0.732151872,-0.003898923397,-1.425421953,1.602463512
2.451738375,-0.7123646019,0.2978255356,-1.215788746,1.440244997
2.461799375,-0.6185338937,0.4824923551,-1.004201401,1.274285488
2.471859375,-0.5270248226,0.6323351499,-1.046640492,1.3315627
2.481920375,-0.6600306331,0.6733086365,-1.142124939,1.481024758
2.491981375,-0.9068246488,0.8055325281,-1.29916244,1.777367898
2.502041375,-1.233866875,1.075378972,-1.653903658,2.326857261
2.512102375,-1.416832539,1.360314522,-2.115074726,2.886418393
2.522162375,-1.417159545,1.488887924,-2.3364316,3.11191919
2.532223375,-1.225654315,1.63103359,-2.289539269,3.066673953
2.542283375,-0.9148688096,1.583190356,-2.36453975,2.989067559
2.552344375,-0.5670774824,1.313650671,-2.585615373,2.95510775
2.562404375,-0.1143571759,1.291737646,-2.751502635,3.041780804
2.572465375,0.2734724123,1.320443089,-2.975726398,3.267002404
2.582525375,0.4877355534,1.258911085,-3.260850667,3.52929032
2.592586375,0.6749489998,1.211394418,-3.388974271,3.661718067
2.602647375,1.030701201,1.201607494,-3.244173238,3.609829018
2.612707375,1.455450036,1.097084422,-2.74009998,3.290908223
2.622768375,1.70537202,0.9734709205,-2.145713552,2.908612385
2.632828375,1.745094349,0.8756356005,-1.522421413,2.475855196
2.642889375,1.838545134,0.8050920135,-0.8347028983,2.173741081
2.652949375,2.099787181,0.6983694374,-0.3112104517,2.234653893
2.663010375,2.417614342,0.5189683827,0.06648459613,2.473581915
2.673070375,2.769936275,0.3522156595,0.3131757009,2.80974765
2.683131375,3.073815487,0.3438412772,0.4383201492,3.123890687
2.693192375,2.943326099,0.4726411854,0.3244959104,2.998642328
2.703252375,2.308895453,0.6206500742,0.2246810156,2.401392573
2.713313375,1.827770177,0.7224750225,0.4893107933,2.0253738
2.723373375,1.549860057,0.7017762445,1.007172956,1.977107346
2.733434375,1.34590669,0.2272498436,1.680825409,2.16524395
2.743494375,1.525737808,-0.499251937,2.666211639,3.112203859
2.753555375,1.840023602,-0.9004259676,3.629279047,4.16750767
2.763615375,1.860558585,-1.153189114,4.199795972,4.736011991
2.773676375,1.431642367,-0.9086094383,3.690574824,4.061466916
2.783736375,0.8241655578,-0.2740509577,2.626433031,2.766315828
2.793797375,0.4653431294,0.1866981605,2.31124238,2.365003545
2.803857375,-0.02223964719,0.5817816583,2.022931963,2.105045897
2.813918375,-0.402080276,0.9119585773,2.25974829,2.469777182
2.823979375,-0.8032834697,1.181965893,2.487341804,2.868654206
2.834039375,0.4460019653,0.2336722791,1.951722232,2.015624012
2.844100375,0.9308337548,-0.250794096,1.697047339,1.951747635
2.854160375,1.560551399,-0.436974047,2.061894885,2.62253265
2.864221375,1.978583902,-1.292549824,2.481377644,3.426764409
2.874281375,1.845851084,-1.639276264,2.697956758,3.656960973
2.884342375,1.576986314,-1.587905258,2.399592639,3.281215289
2.894402375,1.360478683,-1.505501471,1.620700829,2.596942068
2.904463375,1.558394653,-1.18114297,0.6710773391,2.06737452
2.914523375,1.522177292,-0.9802357104,-0.232420975,1.825350724
2.924584375,1.25976814,-1.052359873,-0.8424674159,1.845055126
2.934645375,1.315295201,-1.144595899,-0.693883819,1.87658626
2.944705375,1.304357984,-1.375965326,0.08304040253,1.897768699
2.954766375,1.302217318,-1.6889507,0.5917651212,2.213257863
2.964826375,1.190704557,-2.015734333,0.8410629147,2.487639256
2.974887375,0.831262762,-2.15236856,0.952527802,2.496196589
2.984947375,-0.04096625067,-2.175446059,0.8843627161,2.348689252
2.995008375,-1.27950644,-2.055448037,0.7857605338,2.545471072
3.005068375,-1.83595014,-1.875500268,0.70955845,2.718765779
3.015129375,-1.545725199,-1.758401296,0.1862501907,2.348601848
3.025189375,-0.8582447387,-1.656328791,-0.4773608387,1.925586265
3.035250375,-0.1770694774,-1.572632623,-1.148173299,1.955205588
3.045311375,0.4252212167,-1.599731544,-1.799240296,2.44483532
3.055371375,0.7588498932,-1.455538329,-2.429394143,2.931961952
3.065432375,0.5649289595,-1.133166639,-3.051111626,3.30340635
3.075492375,-0.01288514368,-0.6859481972,-3.653918629,3.717769803
3.085553375,-0.5473542027,-0.1566050997,-4.170531827,4.20921103
3.095613375,-0.8333296797,0.3467109445,-4.512071201,4.601459916
3.105674375,-0.9615790725,0.8176171149,-4.679287536,4.84653112
3.115734375,-1.002090264,1.096059332,-4.638578051,4.870517148
3.125795375,-0.7893761596,1.148387819,-4.185670268,4.411546769
3.135855375,-0.5349415141,1.155707655,-3.229546428,3.471569204
3.145916375,-0.3659701745,1.197120195,-2.547206767,2.83818485
3.155977375,-0.2053558948,1.275615118,-2.24820998,2.59303164
3.166037375,-0.1826677479,1.468621182,-2.152669399,2.612317214
3.176098375,-0.2471683107,1.75278373,-2.296333149,2.899394576
3.186158375,-0.3402708942,1.958948806,-2.321924658,3.056893656
3.196222333,-0.2363356858,1.963929172,-1.957719136,2.78308041
3.206282333,0.1115063659,1.91189363,-1.308898639,2.319695362
3.216343333,0.4835501895,1.671179257,-0.2844220179,1.762826361
3.226403333,0.8890247011,1.275484141,0.8586987019,1.776116036
3.236464333,1.308533919,0.9710957815,1.855673529,2.469577348
3.246524333,1.309329287,0.7455710126,2.357971573,2.798258254
3.256585333,1.205465853,0.6873575223,2.452628054,2.817976696
3.266646333,1.055172895,0.6534386283,2.258596973,2.577136428
3.276706333,0.906449623,0.616756998,1.845184793,2.146333393
3.286767333,0.9696423098,0.5823684264,1.547379668,1.91670108
3.296827333,1.114817857,0.3530307613,1.464751495,1.874285601
3.306888333,1.121682196,0.0931039723,1.575950333,1.936610119
3.316948333,1.192874532,0.02184640367,1.932985414,2.271532418
3.327009333,1.277880329,-0.09903447423,2.359360871,2.685026943
3.337069333,1.280939008,-0.3036409022,2.836699491,3.127277816
3.347130333,1.128939468,-0.2717300151,3.140590982,3.348380689
3.357190333,0.5730506324,-0.1466799993,3.142317665,3.197508774
3.367251333,-0.1562881258,0.1840691428,2.849206685,2.859420599
3.377312333,-0.7687933758,0.6336254843,2.216424515,2.430033362
3.387372333,-1.139564297,0.990720499,1.272138948,1.974454709
3.397433333,-1.20897791,1.25188814,0.6200217909,1.847506028
3.407493333,-0.8079009428,1.24461055,0.4771643722,1.558667762
3.417554333,-0.3262290982,0.9909998497,0.3713788855,1.10744228
3.427614333,0.08406779487,0.4799221384,0.6373014826,0.8022130844
3.437675333,0.5329485637,-0.09637198113,1.261846095,1.373163245
3.447735333,0.8954838279,-0.5528826355,1.706919193,2.00527894
3.457796333,1.12933357,-0.8387420087,1.681403698,2.192259306
3.467856333,1.210543136,-0.9733975379,1.293761952,2.021568065
3.477917333,1.149551926,-0.9946941206,0.6983826667,1.672908956
3.487977333,0.8802040301,-0.8156282575,0.07745280325,1.202500531
3.498038333,0.4054014214,-0.5282178373,-0.5104169029,0.8389814127
3.508099333,-0.2509315969,-0.2987656399,-0.7226030034,0.8212080579
3.518159333,-0.8733486083,-0.2751529386,-0.2869842678,0.9595868388
3.528220333,-1.013036251,-0.4743293132,0.4888085175,1.220722946
3.538280333,-0.747005627,-0.8373362649,1.055135327,1.540279191
3.548341333,-0.2517276771,-1.237346115,1.677376721,2.099520158
3.558401333,0.288604312,-1.53386149,2.033918297,2.563756455
3.568462333,0.731087898,-1.636782134,2.104415252,2.764436438
3.578522333,0.886015797,-1.566993861,1.721171781,2.490567416
3.588583333,0.9968548129,-1.343669399,1.038509939,1.969179998
3.598643333,1.115306904,-1.02221638,0.2677825963,1.53640598
3.608704333,1.182754317,-0.6894535299,-0.4437750167,1.439163024
3.618765333,1.241523804,-0.4173974229,-1.111565051,1.71789954
3.628825333,1.314922441,-0.1644322922,-1.761628082,2.204402981
3.638886333,1.349025741,0.06430373088,-2.330889609,2.69389157
3.648946333,1.377238995,0.244760208,-2.760137803,3.094358657
3.659007333,1.426796779,0.4472704822,-3.096405913,3.438535954
3.669067333,1.324271261,0.6171242031,-3.330611458,3.636964303
3.679128333,1.183919667,0.7100746129,-3.431016337,3.698343526
3.689188333,1.068432919,0.7858406407,-3.366316895,3.618174105
3.699249333,1.012182266,0.8232609205,-3.206672705,3.461938954
3.709309333,0.9359776235,0.8113811325,-2.955787978,3.20485195
3.719370333,0.9438620822,0.871275478,-2.824007524,3.102420843
3.729430333,0.9705259703,0.9278521134,-2.847064265,3.147793693
3.739491333,1.014441483,0.9415674886,-2.915642164,3.227477357
3.749552333,1.111740687,1.031300029,-2.83026463,3.210910304
3.759612333,1.049115472,1.037054128,-2.522618056,2.922281026
3.769673333,0.8824935074,0.8749109843,-2.020803577,2.372321883
3.779733333,0.8442316671,0.7114720975,-1.51597018,1.875389357
3.789794333,0.8164549077,0.4860807914,-1.124316074,1.472059709
3.799854333,0.8267389905,0.3566917396,-0.8838352972,1.261701703
3.809915333,0.7752392732,0.3872522853,-0.845329628,1.210595904
3.819975333,0.7052695173,0.5044688228,-0.896717298,1.247395606
3.830036333,0.6038421066,0.5811015175,-0.9325016731,1.253739859
3.840096333,0.6223111951,0.6383639947,-0.9656863761,1.314279266
3.850157333,0.6877620766,0.6936221561,-0.9923543572,1.392442293
3.860217333,0.7134790081,0.7513673575,-0.9897652102,1.432913247
3.870278333,0.7905265993,0.7555810804,-0.8540940195,1.387556005
3.880339333,0.9373560315,0.7520484851,-0.6093032598,1.347391449
3.890399333,0.9713365406,0.7551434894,-0.2524359941,1.255969863
3.900460333,0.8516259098,0.6714523648,0.2335190821,1.10934491
3.910520333,0.6965827475,0.6039429711,0.8121455097,1.228639477
3.920581333,0.4240750162,0.5075904685,1.358316967,1.510798691
3.930641333,0.2872936586,0.427820706,1.958797948,2.025452444
3.940702333,0.3302026467,0.4527104393,2.475226373,2.537858571
3.950762333,0.4751193816,0.4473647685,2.880244875,2.95324977
3.960823333,0.6988162377,0.4455639723,3.208770102,3.314072563
3.970883333,0.7900358717,0.4979526126,3.33294742,3.461307844
3.980944333,0.6943143202,0.5494817121,3.252278649,3.370655565
3.991004333,0.4311543133,0.6043187278,3.001901459,3.092330438
4.001065333,0.06408978217,0.545197238,2.734653883,2.789207663
4.011126333,-0.2818716817,0.3620141311,2.585599585,2.625991449
4.021186333,-0.5094127167,-0.1767328971,3.145291559,3.191174521
4.031247333,-0.4851078878,-0.8428050195,3.972455642,4.089749845
4.041307333,-0.2254551139,-1.439344465,4.625370945,4.849391598
4.051368333,0.2869333971,-1.881877387,4.641407518,5.016618087
4.061428333,0.7392003981,-1.901147325,3.40994648,3.973476233
4.071489333,0.7366338359,-1.507665672,1.660627956,2.360798678
4.081549333,0.6494929272,-1.028854943,-0.2307568574,1.238399081
4.091610333,0.710043038,-0.5416608419,-1.717092179,1.935449078
4.101670333,0.7949837856,-0.169138643,-2.430241989,2.562554043
4.111731333,0.789502094,-0.03359170575,-2.327950798,2.458413488
4.121791333,0.7936479892,-0.09181584897,-1.413464981,1.623634976
4.131852333,0.7281142965,-0.4265670265,-0.08088219523,0.8477333226
4.141913333,0.5851419435,-0.9498383752,1.174937174,1.620204122
4.151973333,0.5801973187,-1.413079211,2.228631747,2.701892161
4.162034333,0.7175163643,-1.719134611,2.927000381,3.469522269
4.172094333,0.9475727253,-1.90505268,3.334887527,3.955830456
4.182155333,1.206713722,-1.960833802,3.420094907,4.122872346
4.192211958,1.352106201,-1.887556788,3.06936371,3.848643318
4.202272958,1.436598613,-1.705723145,2.454826022,3.316546068
4.212332958,1.401939096,-1.461544443,1.549543723,2.550025713
4.222393958,1.378259773,-1.1728112,0.433752889,1.860974928
4.232453958,1.281250957,-0.851258997,-0.6172665828,1.657487233
4.242514958,1.056652972,-0.5771656105,-1.585716938,1.991013273
4.252574958,0.8233432201,-0.2554914019,-2.40715952,2.556870523
4.262635958,0.5146874169,-0.1147751605,-2.957978345,3.004615177
4.272696958,0.1539590154,-0.07768999921,-2.990543243,2.995511309
4.282756958,-0.135067758,-0.03202472504,-2.876682751,2.880029954
4.292817958,-0.3885059649,-0.03186107609,-3.076682085,3.101277908
4.302877958,-0.593636084,0.1007766521,-3.329235023,3.383247785
4.312938958,-0.812674098,0.3496054259,-3.802922641,3.904469715
4.322998958,-0.945976143,0.63696556,-4.264812917,4.414660259
4.333059958,-1.029192254,0.8222211394,-4.555024847,4.741680679
4.343119958,-1.103942621,1.031034712,-4.035644163,4.309077128
4.353180958,-1.246543347,1.282252146,-3.162169547,3.632816693
4.363240958,-1.372662233,1.316828633,-2.732883931,3.32969876
4.373301958,-1.247164759,1.367860061,-2.38163467,3.016395993
4.383361958,-0.8904076407,1.420977192,-1.9850537,2.598545774
4.393422958,-0.6481993769,1.278461397,-1.652842973,2.187810748
4.403483958,-0.4299991593,1.061086038,-1.174360054,1.640098898
4.413543958,-0.2906009169,0.8968933723,-0.6118275028,1.123921486
4.423604958,-0.1149276084,0.7328656708,-0.1771057302,0.7626708899
4.433664958,-0.0666413746,0.661168282,0.1542156351,0.6821781527
4.443725958,-0.05308822308,0.5828114992,0.4397936475,0.7320560466
4.453785958,0.0329543227,0.494372801,0.685458566,0.8457800538
4.463846958,0.1616919215,0.3866437729,0.8510218924,0.9486179136
4.473906958,0.3134941914,0.3101137333,0.8214127618,0.9322918325
4.483967958,0.4397464678,0.3323547875,0.7006461239,0.8914828387
4.494027958,0.3011474667,0.4013786101,0.4938213354,0.7040270568
4.504088958,0.05312264856,0.2823811204,0.09089204371,0.3013676767
4.514148958,-0.1552082365,0.3679179917,0.04062996268,0.4013776764
4.524209958,-0.4167706013,0.5071112526,0.4411010849,0.7908411496
4.534270958,-0.7077814811,0.3662326779,0.9009419113,1.202820571
4.544330958,-1.035176149,0.293848899,1.288581319,1.678802743
4.554391958,-1.442925446,0.444881383,1.456055515,2.097629842
4.564451958,-1.846234807,0.7737571502,1.29312519,2.383160894
4.574512958,-1.8499225,1.138898811,0.8170215029,2.320954091
4.584572958,-1.390314831,1.311747403,0.2681474626,1.930170884
4.594633958,-0.7906137228,1.056040184,0.1431182045,1.326941502
4.604693958,-0.3853689337,0.5991523473,0.8059223181,1.075640987
4.614754958,-0.05571318436,-0.08618441384,2.051247105,2.053812649
4.624814958,0.3491482832,-0.8602704334,3.417125106,3.541004622
4.634875958,0.8036302827,-1.575494397,4.489843011,4.825628922
4.644935958,0.9633064862,-1.993489186,4.695397784,5.191215549
4.654996958,0.6588457679,-1.986198,4.017794952,4.53009233
4.665057958,0.1811729803,-1.625677248,2.723531894,3.176991681
4.675117958,-0.3732209046,-1.25534823,1.647796242,2.104857591
4.685178958,-0.7518214669,-0.9372138711,1.114182265,1.638599242
4.695238958,-1.127909042,-0.7589086577,0.317959308,1.396144434
4.705299958,-1.41288406,-0.7602747135,-0.8484573036,1.814976254
4.715359958,-1.371887477,-0.7807156292,-1.65574787,2.287595496
4.725420958,-1.204592717,-0.7925868657,-1.601706149,2.15515664
4.735480958,-1.110831956,-1.028573254,-1.05634687,1.846017141
4.745541958,-1.008923758,-1.208955836,-0.3217822176,1.607185478
4.755601958,-0.8476138428,-1.202482969,0.5938496536,1.586528262
4.765662958,-0.4983995591,-1.257855224,1.213030615,1.817153036
4.775722958,-0.1232777978,-1.252818871,1.025843115,1.623917066
4.785783958,0.3203831251,-1.027252294,0.9194945419,1.415402005
4.795843958,0.488649327,-0.7106703711,0.6824495888,1.099803611
4.805904958,0.2297850502,-0.4411985507,0.445876506,0.6680293324
4.815965958,-0.1416153239,-0.01794938061,0.1876780808,0.235796824
4.826025958,-0.596167563,0.391402237,-0.131915524,0.7252676607
4.836086958,-0.9835627031,0.7116692948,-0.4989598686,1.312566085
4.846146958,-1.118863765,0.9932272004,-0.7105016059,1.656251469
4.856207958,-1.134520562,1.082162035,-1.074929906,1.90096972
4.866267958,-0.9931353991,1.20878349,-1.637601036,2.264776501
4.876328958,-0.6969553614,1.219742341,-2.177938727,2.591705086
4.886388958,-0.3202634034,1.154272383,-2.66189347,2.919005007
4.896449958,0.02457431249,1.193133198,-3.284256486,3.494354217
4.906509958,-0.01580860533,1.224628421,-3.747033784,3.942109443
4.916570958,-0.1112692614,1.351664297,-3.888200188,4.117945838
4.926630958,-0.09446279213,1.482633303,-3.958506525,4.228108163
4.936691958,-0.02360049527,1.5753412,-3.877776942,4.185619535
4.946751958,0.2709528836,1.620732112,-3.484812475,3.852804956
4.956812958,0.3675611288,1.479485893,-2.585472116,3.001440613
4.966873958,0.2569209182,1.485944289,-1.609828516,2.20580748
4.976933958,-0.02161785062,1.625369246,-1.023156905,1.920714078
4.986994958,-0.1138050526,1.676536915,-0.7288852519,1.83166627
4.997054958,0.05000016231,1.783222872,-0.435968399,1.836423773
5.007115958,0.2559602572,1.928069806,-0.1441245103,1.950318104
5.017175958,0.2518952729,2.061367027,0.1563440216,2.082577418
5.027236958,0.1593471515,2.174137744,0.5706940949,2.253432536
5.037296958,0.02552536212,2.193314126,1.059868063,2.436103182
5.047357958,-0.1742128933,2.158024718,1.408613546,2.582946561
5.057417958,-0.3979270718,2.152160399,1.636680685,2.732922246
5.067478958,-0.4925786559,2.185377116,1.533501887,2.714799239
5.077538958,-0.6063227879,2.159279384,1.428353747,2.659005304
5.087599958,-0.5532638374,1.971521343,1.788063344,2.718486307
5.097660958,-0.4751101723,1.660544341,2.501316065,3.039690649
5.107720958,-0.3728293604,1.260635136,3.285321264,3.538578597
5.117781958,-0.1453424853,0.8642745336,3.69413344,3.796671803
5.127841958,0.06751027085,0.6659833179,3.580106887,3.642150016
5.137902958,0.1541787245,0.6652288809,3.121730204,3.195543773
5.147962958,0.1104496644,0.6820560712,2.558915817,2.650556502
5.158023958,-0.04374872133,0.8196919262,2.013220323,2.174135431
5.168083958,-0.3524703057,0.9531470221,1.566969595,1.867650469
5.178144958,-0.7554400894,0.9143750122,1.262488704,1.732238182
5.188204958,-1.173868742,0.7656332481,1.038157936,1.7441141
5.1982665,-1.630889018,0.3830084493,1.032033563,1.967635061
5.2083265,-1.985470461,-0.3472747257,1.476250629,2.49840121
5.2183875,-1.842071005,-1.282144412,2.381545208,3.272442124
5.2284475,-1.350634018,-2.249071567,3.434055719,4.321489772
5.2385085,-0.8391836196,-3.065793692,3.943844047,5.065296238
5.2485695,-0.5745370312,-3.302584584,3.335552355,4.728960483
5.2586295,-0.724557289,-2.934295075,1.776088246,3.505646917
5.2686905,-1.145368389,-2.464781492,0.158304593,2.722512974
5.2787505,-1.333533982,-2.128813052,-0.6519259536,2.595219709
5.2888115,-1.288614356,-1.814618181,-0.5346617979,2.28893629
5.2988715,-1.259720924,-1.686132342,0.1685512537,2.111480193
5.3089325,-1.402482156,-1.744589734,0.8832301104,2.406375899
5.3189925,-1.550173468,-1.788652158,1.439976257,2.770531708
5.3290535,-1.563917641,-1.65673181,1.710394778,2.848868017
5.3391135,-1.603270864,-1.477703077,1.635974926,2.725893946
5.3491745,-1.698530632,-1.254936148,1.218992436,2.438403904
5.3592345,-1.660601936,-1.065306193,0.5509737754,2.04842578
5.3692955,-1.393296034,-0.8952353212,-0.3070378786,1.684337371
5.3793555,-1.040910732,-0.7312922582,-1.227587843,1.767839199
5.3894165,-0.6774044649,-0.6521417159,-2.124341394,2.323142696
5.3994765,-0.430194639,-0.5805425237,-2.731958317,2.825896901
5.4095375,-0.3873292858,-0.4399467715,-3.109910057,3.164667076
5.4195985,-0.3636511322,-0.3439238326,-3.249655003,3.287975576
5.4296585,-0.2056937908,-0.1821499038,-3.171292373,3.183171977
5.4397195,-0.1552347317,-0.003163599484,-2.934000667,2.93810615
5.4497795,-0.354580712,0.2293525755,-2.63805788,2.671643589
5.4598405,-0.6923881012,0.4738626688,-2.554678339,2.688927022
5.4699005,-0.9163693513,0.7215032883,-2.722215101,2.961546022
5.4799615,-0.9909496368,1.052230284,-3.107466506,3.427173447
5.4900215,-0.7975594841,1.459956778,-3.628747535,3.991914778
5.5000825,-0.7763758258,1.76144214,-4.03008463,4.466208679
5.5101425,-0.945254889,1.978178544,-4.009215918,4.569519606
5.5202035,-0.9661461134,2.111535114,-3.315385893,4.047691005
5.5302635,-0.8235148358,1.934575272,-1.950294342,2.867822552
5.5403245,-0.8682832385,1.635194615,-0.5407142508,1.928768807
5.5503845,-0.7328092452,1.483411275,0.3201087445,1.685226397
5.5604455,-0.402136994,1.445625398,0.4187559503,1.557852207
5.5705065,-0.04324114647,1.314822599,0.06816157758,1.317298093
5.5805665,0.3315898255,1.274392173,-0.1116479051,1.321549272
5.5906275,0.5721811515,1.254054972,-0.04818339586,1.37926313
5.6006875,0.5675409108,1.095930035,0.3320259547,1.27804795
5.6107485,0.5250472212,0.9411289474,0.9478143615,1.435183035
5.6208085,0.5321745385,0.7380038385,1.633649488,1.869938516
5.6308695,0.6995719173,0.4731980596,2.365636688,2.511882603
5.6409295,0.9647798384,0.1560492123,3.00266686,3.157714326
5.6509905,1.059800674,-0.01602553703,3.486000629,3.643574436
5.6610505,0.9160691699,-0.01361772671,3.780487459,3.889916914
5.6711115,0.7093670268,-0.05020423014,3.82594196,3.891471948
5.6811715,0.582734389,-0.1119582095,3.692200935,3.739580425
5.6912325,0.2837931864,-0.01665963102,3.434808841,3.446553044
5.7012925,-0.09951789279,0.2209766583,3.152964275,3.162264729
5.7113535,-0.4628405942,0.4185599224,2.685344898,2.75689881
5.7214135,-0.7566404497,0.3743720752,2.220592995,2.375645696
5.7314745,-0.7182717515,0.3427422565,1.994016897,2.146972275
5.7415355,-0.3863921964,0.1945732637,2.11606466,2.159835024
5.7515955,0.05603342906,-0.2394647137,2.295674168,2.308809862
5.7616565,0.4443067113,-1.00103835,2.497760373,2.727323433
5.7717165,0.6140579963,-1.570616796,2.845505982,3.30768932
5.7817775,0.580779811,-1.707977685,2.924208335,3.435911429
5.7918375,0.2976309146,-1.614287018,2.500462371,2.991123335
5.8018985,-0.1222318771,-1.328173839,1.552914643,2.047078471
5.8119585,-0.3633668479,-1.070762303,0.6951924258,1.327350702
5.8220195,-0.5245335798,-0.9830080216,0.217953794,1.135316741
5.8320795,-0.4444424763,-1.135436894,-0.1176950955,1.224989057
5.8421405,-0.5020508164,-1.254731203,-0.6086232287,1.482169912
5.8522005,-0.6717577357,-1.378517928,-0.5596779406,1.632424433
5.8622615,-0.6460242858,-1.572860811,0.03284381032,1.7006814
5.8723215,-0.4956790324,-1.559789653,0.555453912,1.728343285
5.8823825,-0.4825040495,-1.409761209,0.6922694027,1.643007532
5.8924435,-0.469973174,-1.206777676,0.4338867903,1.365812904
5.9025035,0.23743668,-1.633617475,0.07789660692,1.652619167
5.9125645,0.4356978557,-1.07012408,-0.08472264647,1.158523238
5.9226245,0.1785142879,0.1864278365,-1.14058946,1.169430206
5.9326855,0.1474269081,-0.02886969538,-2.439696937,2.444317757
5.9427455,-0.2475704164,-0.439752717,-3.069470714,3.11067903
5.9528065,-0.2894721485,-0.03895500035,-2.806623752,2.821781087
5.9628665,-0.441772126,0.3595567656,-2.136447469,2.211074731
5.9729275,-0.8624148267,0.3599478713,-1.794934407,2.023638142
5.9829875,-1.436844927,0.3959459255,-1.802380251,2.338775554
5.9930485,-1.884239955,0.6464889202,-2.093243562,2.889632631
6.0031085,-2.031502373,0.8782397311,-2.570044237,3.391671314
6.0131695,-1.881107455,1.11387894,-3.221714083,3.893421784
6.0232295,-1.563244042,1.282799592,-3.807360093,4.311066875
6.0332905,-1.351709321,1.344698948,-4.261844285,4.668902447
6.0433505,-1.290874304,1.345504109,-4.367522768,4.748893861
6.0534115,-1.198638424,1.34321931,-4.084803459,4.463921089
6.0634715,-1.050327746,1.335027361,-3.521283898,3.909594188
6.0735325,-0.8531204581,1.250054746,-2.956614189,3.321448306
6.0835935,-0.5202523947,0.958567391,-2.573366041,2.79494665
6.0936535,-0.2388483623,0.7501631235,-2.266301849,2.399149292
6.1037145,-0.01882743141,0.7593878371,-1.88992184,2.036867429
6.1137745,0.244407694,0.9755230008,-0.8209397221,1.298199628
6.1238355,-0.09831331154,1.165004948,-0.7942044979,1.413387003
6.1338955,-0.2590010286,0.9793798973,-1.288214114,1.638829497
6.1439565,0.04314781029,0.7422154418,-0.6378821111,0.9796117002
6.1540165,0.3698167288,0.6677166519,-0.355766235,0.8421279915
6.1640775,0.7191612592,0.6386131592,-0.1111731112,0.968183425
6.1741375,0.8733700237,0.582915872,0.1618012279,1.062424468
6.1841985,0.9100091156,0.6768314378,0.2788817811,1.167900866
6.194261208,0.9167198919,0.7834930567,0.4817941976,1.298600161
6.204322208,0.9094007859,0.7988214594,0.7367713916,1.417024205
6.214382208,0.992786905,0.79667692,1.106152284,1.686384543
6.224443208,1.032326654,0.7606506895,1.568181723,2.025705237
6.234503208,1.063788475,0.6519360401,2.284265081,2.602793399
6.244564208,1.28993568,0.4649097776,3.009909806,3.307511481
6.254625208,1.406912445,0.4641444502,3.320727909,3.636215965
6.264685208,1.224408785,0.615697044,2.940041426,3.243779171
6.274746208,0.6596925178,0.8955281205,2.269872159,2.527742956
6.284806208,-0.06005278682,1.2119328,2.035205854,2.369483133
6.294867208,-0.5934376807,1.4555031,2.174702293,2.683279265
6.304927208,-0.9311129594,1.421052182,2.458249567,2.988202065
6.314988208,-0.9149264777,1.076790783,2.614429282,2.971836018
6.325048208,-0.3959253872,0.4649310103,3.517070979,3.569692708
6.335109208,0.1913244776,-0.4270596544,4.593037596,4.616814851
6.345169208,0.7699131176,-1.259691834,5.291745953,5.493829717
6.355230208,1.258144222,-1.904067571,5.712133276,6.151167919
6.365290208,1.598434632,-2.340800201,5.590170298,6.267722299
6.375351208,1.679423831,-2.39745782,4.743595213,5.57404377
6.385411208,1.381935625,-2.128642898,3.376210384,4.223702548
6.395472208,1.062690441,-1.760421947,2.084945778,2.928377589
6.405532208,0.8600022655,-1.451637798,0.8967401022,1.910758751
6.415593208,0.6463078757,-1.168373602,0.03232223868,1.335610523
6.425654208,0.4070772334,-0.8782916982,-0.4383944088,1.062684261
6.435714208,0.1004421,-0.5989406415,-0.62724778,0.8730740433
6.445775208,-0.2394288629,-0.4272257518,-0.6146669108,0.7859156664
6.455835208,-0.534770081,-0.2811742916,-0.624095546,0.8686387468
6.465896208,-0.8658347169,-0.1017846938,-0.6981826919,1.11691045
6.475956208,-1.245397877,-0.02667854268,-0.7544954717,1.45636226
6.486017208,-1.421738061,-0.06221875539,-0.9465332365,1.709132954
6.496077208,-1.447482035,-0.1311299689,-1.148573248,1.852463176
6.506138208,-1.165707929,-0.2886840534,-1.354144979,1.809950851
6.516198208,-0.5988041456,-0.4218954301,-1.650177228,1.805449263
6.526259208,-0.1633319742,-0.4931369188,-1.908389102,1.977829699
6.536319208,0.05565410921,-0.4779847366,-2.175685794,2.228267368
6.546380208,0.1910043791,-0.4368738038,-2.178426384,2.229996167
6.556440208,0.3077608868,-0.4919687548,-1.784105948,1.876108753
6.566501208,0.33872902,-0.4143911866,-1.672206028,1.755770601
6.576561208,0.3177196453,-0.2878019644,-2.103321823,2.146564333
6.586622208,0.03013742199,-0.06814395371,-2.862853501,2.863822975
6.596682208,-0.3162040835,0.3638883099,-3.490805286,3.52393548
6.606743208,-0.3547103375,0.8301973262,-3.882729533,3.986306016
6.616804208,-0.1273627357,1.142707249,-3.935255072,4.09978458
6.626864208,0.1813935665,1.187233576,-3.586807796,3.782541125
6.636925208,0.5598165562,1.089828392,-2.971726903,3.214386611
6.646985208,0.91452397,1.068733319,-2.441815968,2.817979812
6.657046208,1.07999915,1.104693696,-2.229983039,2.712852867
6.667106208,1.120595564,1.134816943,-2.21551118,2.729841333
6.677167208,1.038128773,1.328794375,-1.98918125,2.607728492
6.687227208,1.013273064,1.540406718,-1.447612136,2.344174919
6.697288208,1.090520483,1.538241055,-0.831217373,2.060665618
6.707348208,1.117322877,1.445061288,-0.286893636,1.849032314
6.717409208,1.141904937,1.397364965,0.1272418445,1.809078832
6.727469208,1.136680085,1.414427433,0.3669542974,1.851297392
6.737530208,1.024282567,1.373423395,0.5361984462,1.795259138
6.747590208,0.9266836204,1.172069554,0.8482526511,1.718144968
6.757651208,0.8775523178,0.8261961497,1.470677648,1.901470718
6.767711208,0.7440329757,0.3404660451,2.214055223,2.360411559
6.777772208,0.4665838355,-0.1047974534,2.903644847,2.942759994
6.787832208,0.08861572266,-0.4664088576,3.355630524,3.389047976
6.797893208,-0.2367290573,-0.7486076179,3.568939875,3.654283219
6.807954208,-0.3598926151,-0.8884420992,3.543506241,3.67087027
6.818014208,-0.2438581288,-0.8124133122,3.413971703,3.517767043
6.828075208,-0.06848840039,-0.5527832694,3.157125154,3.205885095
6.838135208,-0.01929409403,-0.2398475236,2.678408346,2.689195115
6.848196208,-0.0438644962,0.03789302722,2.153713127,2.154493029
6.858256208,-0.1574758598,0.2136348943,1.848784924,1.867737725
6.868317208,-0.365501776,0.3522134668,1.7070835,1.780949171
6.878377208,-0.460045954,0.2660845649,1.624462928,1.709187842
6.888438208,-0.4277411474,-0.006018648706,1.591837218,1.648315638
6.898498208,-0.2102637187,-0.3310006089,1.679461253,1.724633972
6.908559208,0.1331538912,-0.7265485583,1.806596094,1.951766434
6.918619208,0.4206112353,-1.124623345,1.797907716,2.161981414
6.928680208,0.5923530953,-1.340813619,1.570004885,2.147924274
6.938740208,0.6055963079,-1.418776884,1.038101218,1.859389382
6.948801208,0.3703741511,-1.342070186,0.2836408299,1.420838314
6.958861208,0.03964532811,-1.181119435,-0.3466217744,1.231568726
6.968922208,-0.3466100069,-1.075196758,-0.7074844426,1.332936909
6.978982208,-0.8609022982,-0.9700039601,-0.8154257977,1.531985536
6.989043208,-1.407058772,-0.9694996378,-0.790747624,1.882823874
6.999103208,-1.852025451,-0.9573678347,-0.7880666757,2.228811461
7.009164208,-1.948881801,-1.058026629,-0.6858251864,2.321188663
7.019224208,-1.678405831,-1.232245296,-0.6220993066,2.173127274
7.029285208,-1.402306886,-1.37017512,-0.2297751099,1.973991151
7.039346208,-1.034294389,-1.47099369,0.3702544659,1.835940001
7.049406208,-0.7045517716,-1.499688754,0.6318495387,1.773328339
7.059467208,-0.5584314239,-1.403194347,0.4574241722,1.577985077
7.069527208,-0.380916754,-1.218886528,-0.1888902086,1.290914967
7.079588208,-0.2267988771,-0.8915256283,-0.9864691347,1.348842849
7.089648208,-0.1536745849,-0.5618160116,-1.602339402,1.70491779
7.099709208,-0.199271337,-0.3209046236,-1.943414508,1.979785037
7.109769208,-0.3146953923,-0.09081457724,-1.990552422,2.017319861
7.119830208,-0.4607315401,0.1262415961,-1.746831118,1.810974723
7.129890208,-0.5710302002,0.3435795778,-1.412035922,1.561399328
7.139951208,-0.5474331036,0.5021657873,-1.368193499,1.556858032
7.150011208,-0.2644895176,0.7592324473,-1.646270118,1.832100957
7.160072208,0.1046164821,1.254331399,-2.000889714,2.363863684
7.170132208,0.2709957875,1.713398931,-2.449613814,3.001629966
7.180193208,0.2727775438,1.937357816,-3.058066304,3.630362574
7.190253208,0.4273359353,2.321611101,-3.566456562,4.276927228
7.200314458,0.4971765043,2.757419725,-3.704622175,4.644865281
7.210374458,0.3339360939,2.815598936,-3.492632541,4.498621205
7.220435458,0.24323149,2.582073422,-3.003319994,3.968147641
7.230495458,0.275234288,2.306076803,-2.351713298,3.305192819
7.240556458,0.325675038,2.01695187,-1.454207211,2.507763483
7.250616458,0.5580546439,1.627979443,-0.5657847726,1.811588933
7.260677458,0.8467366143,1.111205009,0.2991669416,1.42871982
7.270738458,1.008188325,0.7890830679,0.9207405835,1.576977809
7.280798458,0.9374431551,0.6014471967,0.9735573131,1.479308028
7.290859458,0.7526259707,0.5389450295,0.6569282466,1.13510454
7.300919458,0.6208876173,0.593239387,0.2529651672,0.8952238711
7.310980458,0.6716229574,0.6250025953,0.0306090045,0.9179556374
7.321040458,0.7300201964,0.517368219,0.0007080978155,0.8947624616
7.331101458,0.7309872528,0.3488415602,0.1637559521,0.8263466644
7.341161458,0.6709952588,0.1818311575,0.4422366142,0.8239359381
7.351222458,0.6272837403,-0.03391735911,0.76495731,0.9898459295
7.361282458,0.5709322228,-0.2323157982,1.139018898,1.29510551
7.371343458,0.5921387583,-0.3976513025,1.467600843,1.631749705
7.381403458,0.5682835802,-0.5115259004,1.755948097,1.915191555
7.391464458,0.4674698348,-0.5306173519,1.990928398,2.112789319
7.401524458,0.391787203,-0.594316773,2.059003437,2.178578617
7.411585458,0.2797106605,-0.4639739308,1.909110063,1.984492655
7.421645458,0.2309093601,-0.1301954924,1.767619724,1.787386216
7.431706458,0.2318686506,0.187380823,1.531137273,1.559889737
7.441766458,0.2328234461,0.5861335216,1.089802884,1.259138431
7.451827458,0.1568037223,0.9893649682,0.6468803912,1.192428064
7.461887458,0.145643288,1.322578931,0.5286017436,1.431728605
7.471948458,0.1112331183,1.441906569,0.8682530522,1.686810814
7.482008458,0.02399474379,1.343419577,1.570308355,2.066693068
7.492069458,-0.02492938466,1.080988645,2.082785817,2.346732768
7.502129458,-0.0772668618,0.7519280324,2.244553716,2.368414515
7.512190458,-0.03243165471,0.4019976475,2.322933303,2.357683831
7.522251458,0.02784290604,-0.05020231152,2.604047551,2.604680239
7.532311458,0.112825242,-0.5235672909,3.00345448,3.050834485
7.542372458,0.2381766452,-0.9177808692,3.218427948,3.355194226
7.552432458,0.3032468364,-1.145036268,2.953302326,3.181990152
7.562493458,0.2459588141,-1.209776786,2.099137555,2.435248259
7.572553458,0.1370962667,-1.119635524,1.022144752,1.522221727
7.582614458,0.08519802511,-0.8944303058,0.1747159731,0.915308662
7.592674458,-0.04440317094,-0.6580360747,-0.2392704034,0.7015935028
7.602735458,-0.3384587325,-0.5652912676,-0.3603095216,0.7509537151
7.612795458,-0.7322721785,-0.5527934654,-0.3035675561,0.9664142072
7.622856458,-1.040163239,-0.5737318331,-0.2241535968,1.208864184
7.632916458,-1.190190221,-0.710126507,-0.3310342669,1.424926701
7.642977458,-1.134958153,-0.8726467963,-0.5356856453,1.528594633
7.653037458,-0.7847557629,-1.039548112,-0.7497598118,1.502877793
7.663098458,-0.357623128,-1.226649219,-0.8845200062,1.554007158
7.673158458,-0.05331074618,-1.375793564,-0.9344020182,1.663958262
7.683219458,0.1997876279,-1.448737725,-1.103897012,1.832305844
7.693279458,0.4738016385,-1.383829392,-1.442712169,2.054480514
7.703340458,0.7421241521,-1.22489235,-1.80947,2.307659248
7.713400458,0.8533179478,-0.8959371333,-2.208714377,2.531654413
7.723461458,0.6433955238,-0.4292163268,-2.706388443,2.814733177
7.733521458,0.3493899925,0.0005151762441,-3.072487292,3.092289086
7.743582458,0.04772769677,0.3531774534,-3.293213251,3.312441058
7.753642458,-0.2298450572,0.7595664695,-3.535265175,3.623240239
7.763703458,-0.4962090459,1.147356004,-3.656871473,3.864629114
7.773763458,-0.5925770437,1.525892028,-3.779940745,4.11915599
7.783824458,-0.4568158059,1.810632719,-3.847390131,4.276620435
7.793884458,-0.312399885,2.000561539,-3.682105717,4.202111692
7.803945458,-0.07669034461,1.980892529,-3.31939299,3.866288458
7.814006458,0.3949265731,1.867037008,-2.753615234,3.350252385
7.824066458,0.7668010832,1.828887726,-1.730978147,2.632318287
7.834127458,0.7853861658,1.718439378,-0.8036261165,2.053212181
7.844187458,0.546510413,1.504594276,-0.3412639707,1.636746365
7.854248458,0.3018075808,1.594534539,-0.1289720356,1.62796253
7.864308458,0.06839382168,1.689442304,-0.09429687738,1.693453547
7.874369458,-0.02122663535,1.532073412,0.1718923527,1.541832186
7.884429458,0.04414399311,1.166632886,0.7907429463,1.410055101
7.894490458,0.1491835944,0.7294756014,1.570598377,1.738151219
7.904550458,0.1805399461,0.3282349855,2.207382381,2.238943915
7.914611458,0.1352998559,0.03861344073,2.376448774,2.380610389
7.924671458,-0.009590420388,-0.10908423,2.17577935,2.178533251
7.934732458,-0.2839983141,-0.2130912129,1.749277593,1.784946779
7.944792458,-0.457193865,-0.2174719834,1.308746027,1.403259226
7.954853458,-0.5983592821,-0.2300719657,0.9807716078,1.171699572
7.964913458,-0.7014853455,-0.2974258966,0.8243644363,1.122550924
7.974974458,-0.6672919978,-0.3606198991,0.8150258482,1.113369864
7.985034458,-0.6503999765,-0.3662247111,0.8035769999,1.09675734
7.995095458,-0.8797184189,-0.2501454205,0.6943749851,1.148317834
8.005155458,-1.314402038,-0.06681489073,0.3933334261,1.373618627
8.015216458,-1.549501477,0.06875386398,0.2677808422,1.573972204
8.025276458,-1.387920835,0.2122927025,0.4824157566,1.484627023
8.035337458,-0.9115398435,0.3070559685,0.9942687356,1.383386632
8.045397458,-0.6289462499,0.1901232767,1.684322628,1.807944402
8.055458458,-0.6098321405,-0.108873648,2.47909723,2.555322247
8.065518458,-0.4670724434,-0.5596199801,3.366037399,3.444058501
8.075579458,-0.23510143,-1.149093212,4.27333231,4.431371901
8.085639458,0.04911132158,-1.754452671,5.112696024,5.405569047
8.095700458,0.4002279877,-2.176414504,5.532525523,5.958674449
8.105761458,0.5762523119,-2.343341255,5.314802109,5.836988643
8.115821458,0.4500903019,-2.217332003,4.46211376,5.002959294
8.125882458,-0.02073488452,-1.750903265,3.186287557,3.635728342
8.135942458,-0.7427289735,-0.9806376334,2.020194297,2.365265628
8.146003458,-1.568567054,-0.2763280828,1.279654375,2.043104288
8.156063458,-2.309788469,0.0415670201,0.8863899457,2.47437623
8.166124458,-2.590497213,0.158259405,0.8946134698,2.745187628
8.176184458,-2.455145865,0.154846641,1.125318872,2.705191539
8.186245458,-1.964915305,-0.04311762404,1.277504354,2.344092289
8.196302208,-1.280670036,-0.4216088799,1.036965104,1.700931044
8.206363208,-0.7690194438,-0.677222178,0.7006870544,1.241363416
8.216423208,-0.2389811855,-0.8926837425,0.3789866978,0.9988128895
8.226484208,0.1037461971,-1.063697113,-0.1694733596,1.082097981
8.236544208,0.2817787841,-1.144557819,-0.8831418175,1.472871805
8.246605208,0.4691596802,-1.139968632,-1.866256405,2.236638606
8.256665208,0.6186493763,-1.002020901,-2.664003146,2.912676724
8.266726208,0.6167186256,-0.797340652,-3.212391282,3.366831111
8.276786208,0.4168526816,-0.6108639548,-3.675425858,3.749090045
8.286847208,0.09802725479,-0.4865113292,-3.730896639,3.763760399
8.296907208,-0.1745452344,-0.5250683808,-3.413953577,3.458502836
8.306968208,-0.3617047403,-0.4644090367,-3.089385746,3.144965875
8.317028208,-0.6111957112,-0.2749745985,-3.153617409,3.224046214
8.327089208,-0.9589148618,-0.04026968284,-3.511960512,3.640742507
8.337149208,-1.234137309,0.2792452952,-3.892601388,4.093093988
8.347210208,-1.441011214,0.5503874824,-4.278125857,4.547724766
8.357270208,-1.532980607,0.7482977886,-4.696702298,4.996898198
8.367331208,-1.451425105,0.8465926997,-4.846761732,5.129761527
8.377391208,-1.199173152,0.8611342134,-4.680987321,4.908279809
8.387452208,-0.8098652418,0.8977477236,-4.414725586,4.577295564
8.397512208,-0.5488783891,0.9200509775,-4.287357441,4.419184893
8.407573208,-0.3496710609,1.059498592,-4.267578065,4.411012317
8.417633208,-0.1801656512,1.337331018,-3.811501676,4.043322759
8.427694208,-0.07116006631,1.450975454,-3.035518856,3.365229301
8.437754208,-0.2538591699,1.315585515,-2.541327977,2.872900557
8.447815208,-0.4050888512,1.305134202,-1.663521159,2.152852737
8.457875208,-0.2967740783,1.442262811,-0.5979947448,1.589274861
8.467936208,-0.04302063335,1.500463364,0.1736295605,1.511088451
8.477996208,0.1360274688,1.454644582,0.5793275088,1.571659854
8.488057208,0.2735657119,1.49773096,0.9017804021,1.769532176
8.498118208,0.2869111045,1.450195582,1.348781328,2.00114874
8.508178208,0.3167521138,1.258137791,2.071677276,2.444399587
8.518239208,0.3846285665,1.01981047,2.99264941,3.184949453
8.528299208,0.3957751868,0.8139607778,3.737425055,3.845453964
8.538360208,0.2149041787,0.6786961149,4.030186957,4.092580986
8.548420208,0.06987638321,0.5486999759,3.980935274,4.019179025
8.558481208,0.1590698473,0.4703505753,3.754635749,3.787323922
8.568541208,0.2957677359,0.4554050555,3.449092419,3.491577127
8.578602208,0.3476446717,0.4707577973,3.126134326,3.180437949
8.588662208,0.2306246372,0.6501759551,2.828335633,2.911253845
8.598723208,-0.048523046,0.8285396406,2.534594908,2.667021516
8.608783208,-0.08881288346,1.049621987,2.529547006,2.740109871
8.618844208,-0.1794431546,1.248727136,2.607059451,2.896252456
8.628904208,-0.3981991135,1.211814029,2.568784747,2.868050008
8.638965208,-0.4169494531,1.092665388,2.63039335,2.878668733
8.649025208,-0.3821921414,0.8082462209,2.784362233,2.924381273
8.659086208,-0.3341521485,0.3648737119,2.656090109,2.701778146
8.669146208,-0.3956029498,-0.2397204563,2.364370766,2.409194203
8.679207208,-0.1516107736,-0.8943544382,3.090808958,3.221173032
8.689267208,0.4180796468,-1.418479261,4.075470718,4.335474089
8.699328208,0.7381839328,-1.854305427,4.245196093,4.690954487
8.709388208,0.8147114141,-1.963533023,3.064105309,3.72933747
8.719449208,0.7677652891,-1.576621448,1.342758111,2.208664319
8.729509208,0.6682744762,-1.049849005,-0.1622643274,1.255031243
8.739570208,0.5619525806,-0.7195576273,-1.361810094,1.639536707
8.749630208,0.3225784257,-0.499291698,-2.012856041,2.098794531
8.759691208,-0.07997821569,-0.3030093663,-2.031973513,2.055997944
8.769751208,-0.5156375528,-0.2795110877,-1.648624792,1.749849205
8.779812208,-0.7546214792,-0.366249781,-1.190784883,1.456557969
8.789872208,-0.8690231305,-0.4765291453,-0.8179488713,1.285037581
8.799933208,-1.055444937,-0.5733611561,-0.7323853952,1.406803255
8.809993208,-1.189678297,-0.6479340595,-0.9888466126,1.677191289
8.820054208,-1.081405697,-0.8120610175,-1.453567525,1.985381557
8.830114208,-0.7900303899,-1.009426984,-1.878408088,2.274094941
8.840175208,-0.4484710617,-1.137899375,-2.195737066,2.513404573
8.850235208,-0.07609489705,-1.165109028,-2.427463392,2.693668131
8.860296208,0.2020672745,-1.113726621,-2.654712505,2.885951602
8.870356208,0.3672974559,-0.9938483939,-2.793403198,2.987598279
8.880417208,0.3748120051,-0.8385021997,-2.789569763,2.936880903
8.890477208,0.3476250836,-0.5980397318,-2.70874487,2.795674068
8.900538208,0.241801663,-0.2374571453,-2.401980641,2.425771
8.910598208,0.183160522,-0.04122294344,-1.941361551,1.95041836
8.920659208,0.4283067924,0.05284340747,-1.466930752,1.529092857
8.930720208,0.8378653648,0.333883469,-1.242040406,1.534979124
8.940780208,1.083622304,0.6709871458,-1.231115468,1.772034521
8.950841208,1.275923559,1.065038829,-1.365351752,2.150923997
8.960901208,1.63001749,1.637142322,-1.491834043,2.75004742
8.970962208,1.97994221,2.096876145,-1.445725824,3.226016721
8.981022208,2.311888643,2.334111571,-1.075498255,3.456819697
8.991083208,2.391773303,2.412227887,-0.3059333396,3.410721056
9.001143208,2.109156175,2.119152867,0.865786112,3.112705292
9.011204208,1.8313266,1.743199851,1.878313948,3.14969302
9.021264208,1.40078968,1.347506927,2.434159039,3.114982644
9.031325208,0.8420286555,1.033107989,2.613554538,2.933767492
9.041385208,0.3352674318,0.8220936701,2.274996074,2.442099382
9.051446208,-0.201836675,0.7372769565,1.515721089,1.697564659
9.061506208,-0.5933500821,0.6407987022,0.5575191486,1.03610564
9.071567208,-0.9402482106,0.4519574275,-0.09043128312,1.047143749
9.081627208,-1.244533659,0.3136155577,-0.4051997656,1.345884689
9.091688208,-1.429022522,0.1201584544,-0.4256059635,1.495888986
9.101748208,-1.542105334,-0.1696793278,-0.399150821,1.601936738
9.111809208,-1.764373934,-0.4093723387,-0.3552084106,1.845744865
9.121869208,-2.088385988,-0.5585136869,-0.3440776509,2.188991321
9.131930208,-2.223655182,-0.5842380736,-0.4609254849,2.344872875
9.141990208,-2.080455701,-0.5727104341,-0.5167821819,2.218863896
9.152051208,-1.578296821,-0.3372212058,-0.4049500895,1.663948188
9.162111208,-1.126244998,0.009110765979,-0.1562703466,1.137071335
9.172172208,-0.920109669,0.4339992761,-0.017705369,1.017482508
9.182232208,-1.05780882,0.8182228864,0.01348309457,1.33739672
9.192293208,-1.400284042,0.9673968329,-0.1560124844,1.709090964
9.202356375,-2.016422843,0.9255177587,-0.006116187572,2.218689165
9.212417375,-2.599349898,0.7936254043,0.3055158484,2.734922505
9.222477375,-2.457399674,0.4221887776,0.796743359,2.617605108
9.232538375,-2.146280732,-0.4801844591,1.090424443,2.4548164
9.242598375,-1.249279405,-1.206089751,2.665469627,3.181207295
9.252659375,-0.130490119,-1.504007362,4.420603207,4.671273758
9.262719375,0.5700349675,-2.067253565,4.723103061,5.187116704
9.272780375,0.9450574724,-2.625907951,4.727015433,5.489371649
9.282840375,1.0235149,-2.572381369,4.19241854,5.024052336
9.292901375,0.8977692121,-2.230500225,3.168060617,3.97715085
9.302961375,0.6126170962,-1.837540875,1.882475411,2.701031256
9.313022375,0.2805452409,-1.316729815,0.721221891,1.527299595
9.323082375,-0.08727692954,-0.7996171924,-0.1822682369,0.8247585264
9.333143375,-0.4462207608,-0.4476059662,-0.7833643448,1.006540494
9.343203375,-0.7541058279,-0.2173303346,-0.9105675977,1.202098758
9.353264375,-0.9308099274,-0.2413019454,-0.7666494942,1.229790713
9.363324375,-0.8831227409,-0.3994067828,-0.3968236291,1.047330199
9.373385375,-0.7669106454,-0.6425001689,0.007804278731,1.000509526
9.383445375,-0.6174254809,-0.8147608231,0.1095914394,1.02813409
9.393506375,-0.4456270491,-0.9085858302,-0.2472354805,1.041747119
9.403566375,-0.2070973418,-0.880353865,-0.8507137442,1.241622371
9.413627375,0.08523223132,-0.7808081614,-1.523819482,1.714337112
9.423687375,0.4127397501,-0.6241534334,-2.05773693,2.189566825
9.433748375,0.6322866181,-0.4701114607,-2.327426303,2.457174058
9.443808375,0.6801120912,-0.3227174067,-2.401114084,2.516356061
9.453869375,0.5482605942,-0.1876360174,-2.352719604,2.423032498
9.463929375,0.2069407826,-0.03219995879,-2.185833052,2.195843222
9.473990375,-0.04282690778,0.1607297257,-2.085904137,2.092525808
9.484050375,-0.234710233,0.3891017231,-2.089560986,2.138399906
9.494111375,-0.3640381448,0.6424904479,-2.245410333,2.363722765
9.504171375,-0.4440222808,0.8927504738,-2.423841042,2.620909115
9.514232375,-0.4625217748,1.054178796,-2.508492352,2.760027755
9.524292375,-0.4186934582,1.145051836,-2.58505404,2.858137909
9.534353375,-0.4323091384,1.171914018,-2.791425084,3.058157559
9.544413375,-0.4341470645,1.272390086,-2.861567699,3.16164987
9.554474375,-0.2290905471,1.46797448,-2.777352591,3.14978078
9.564534375,-0.06233826242,1.529890062,-2.548739322,2.973301497
9.574595375,0.317106784,1.568242095,-2.275812346,2.781952878
9.584655375,0.7056514867,1.611442786,-1.9385391,2.617752035
9.594716375,0.8766410293,1.591509774,-1.510945083,2.363124605
9.604776375,0.7793419721,1.533448092,-1.196228056,2.095184604
9.614837375,0.6753434676,1.48071644,-0.9076393121,1.863442807
9.624897375,0.6311411485,1.538545841,-0.5347699714,1.746837536
9.634958375,0.5337317982,1.399859388,0.002806663513,1.498160143
9.645018375,0.7610575826,1.150505095,0.686825645,1.540973746
9.655079375,1.273901884,0.8747092554,1.139936911,1.920259996
9.665139375,1.493842269,0.5281906843,1.392227894,2.109229393
9.675200375,1.5288323,0.3246127816,1.530626226,2.187582754
9.685260375,1.655515736,0.339270728,1.612211257,2.33560744
9.695321375,1.678991868,0.3572717468,1.669991103,2.394896047
9.705381375,1.623366721,0.2406391635,1.880730017,2.496071336
9.715442375,1.668533977,0.0964467524,2.242501343,2.796805299
9.725503375,1.571081503,0.0921870558,2.311268692,2.796204304
9.735563375,1.08768875,0.01535062216,2.249404566,2.498624293
9.745623375,0.6348361503,0.1595267341,2.027003964,2.130072954
9.755684375,0.3479210258,0.5870480993,1.712191628,1.843169737
9.765744375,0.2916161397,1.049196018,1.285084684,1.684427173
9.775805375,0.3217535663,1.301203557,0.9819656092,1.661599384
9.785865375,0.3147686652,1.436050144,0.8285709232,1.687557141
9.795926375,0.3111563284,1.604305383,0.7817370647,1.811553714
9.805987375,0.1203446517,1.365527169,0.7689082736,1.571740187
9.816047375,0.1044469494,0.9283951735,1.500882609,1.767901403
9.826108375,0.3464845476,0.4171539594,2.85409905,2.905159265
9.836168375,0.6284652434,-0.3470127339,3.861026423,3.927201477
9.846229375,0.9409898568,-1.063597491,4.510896496,4.729153066
9.856289375,1.326473908,-1.353769295,4.633128446,5.00580698
9.866350375,1.369511169,-1.471566424,4.090013913,4.557332815
9.876410375,0.8971024103,-1.373876992,3.293843581,3.679909817
9.886471375,0.1968021492,-1.066125827,2.777843172,2.981906781
9.896531375,-0.0876917164,-0.6541038953,2.54534209,2.629507197
9.906591375,0.09050124871,-0.4813217425,2.333474663,2.384316484
9.916652375,0.335870499,-0.555032547,1.977024888,2.080744465
9.926713375,0.4863662086,-0.695147183,1.601923665,1.812716504
9.936773375,0.495175112,-0.7977908877,1.13503519,1.473083017
9.946834375,0.4656170349,-0.8487086608,0.6257959163,1.15270384
9.956894375,0.4412200392,-0.9312828941,0.0738912642,1.03316159
9.966955375,0.4624909307,-0.9726868089,-0.4304696774,1.159880008
9.977015375,0.4722172989,-1.113507862,-0.8542852235,1.480774182
9.987076375,0.4987291593,-1.343269742,-1.207584518,1.873863587
9.997136375,0.8484431241,-1.448416421,-1.45815642,2.223507591
10.00719738,1.057960628,-1.575382569,-1.727217218,2.566006673
10.01725738,0.9622486518,-1.57502735,-2.158824763,2.840274279
10.02731838,0.9573695158,-1.438767053,-2.537503313,3.070102618
10.03737838,1.234626136,-1.275529895,-2.866219159,3.371422619
10.04743938,1.378818182,-1.025453399,-3.35653158,3.770808733
10.05749938,1.039405659,-0.7200186072,-3.95965024,4.156635772
10.06756038,0.4875505986,-0.3431014583,-4.369865162,4.410345308
10.07762038,0.1312703568,0.03951029398,-4.619223182,4.621256948
10.08768138,0.04623506706,0.3257334736,-4.717440033,4.728898439
10.09774138,0.2363011507,0.4948153621,-4.742034007,4.773632474
10.10780237,0.416075879,0.670839869,-4.724404067,4.789899691
10.11786237,0.4579784151,0.8571559871,-4.516388201,4.619764387
10.12792337,0.4826724128,1.09564703,-4.219912148,4.386464819
10.13798337,0.5359632054,1.320594532,-3.768947394,4.029415707
10.14804438,0.6152969483,1.589231991,-3.274309203,3.691253095
10.15810438,0.7695007427,1.779130552,-2.96881265,3.545600861
10.16816538,0.9750575624,1.914608493,-2.913925422,3.620417696
10.17822538,1.137184553,1.969131586,-2.776995326,3.589201993
10.18828638,1.223570367,1.779993017,-2.015553362,2.954311246
10.19834675,1.39445773,1.500447284,-0.7541691971,2.182802234
10.20840775,1.614788417,1.087814392,0.6449221587,2.051050066
10.21846775,1.715913819,0.6824340937,1.950393745,2.685909955
10.22852875,1.654857339,0.4246117906,2.536811002,3.058473156
10.23858875,1.739463188,0.4069288603,2.455673284,3.036717727
10.24864975,1.656634893,0.4482895788,1.974814641,2.616351578
10.25870975,1.380787086,0.4996496207,1.637388783,2.199378263
10.26876975,1.035822851,0.5530433243,1.385082012,1.815829859
10.27883075,0.8774263103,0.5080394981,1.360566391,1.696797562
10.28889075,0.7101199289,0.3565481539,1.58091345,1.769373967
10.29895175,0.6842076273,0.1627133205,2.030796468,2.149127729
10.30901275,0.9992198655,0.07310795657,2.689755453,2.870290841
10.31907275,1.045734393,0.1457290594,3.077035841,3.253144163
10.32913375,0.8288492507,0.1443097939,3.549426547,3.647772636
10.33919375,0.5353945271,0.2810685667,3.639180722,3.689076194
10.34925475,0.2110276757,0.6300514468,3.351035782,3.416275504
10.35931475,-0.1578135913,1.003805837,2.811815495,2.9897889
10.36937475,-0.6918308616,1.346409697,2.220304728,2.687229446
10.37943575,-1.151023963,1.497755957,1.817788249,2.621542139
10.38949575,-1.259292762,1.165965426,1.659425184,2.38725482
10.39955675,-1.025294354,0.4257871541,2.062858506,2.34262853
10.40961675,-0.6515963168,-0.4865384091,2.897436274,3.009391025
10.41967775,-0.3770015681,-1.221525084,3.517989576,3.74306083
10.42973775,-0.2050370023,-1.687374436,3.598488779,3.979748001
10.43979875,-0.217870124,-1.938952205,3.171632096,3.723741828
10.44985875,-0.2690714506,-1.903601401,2.364263177,3.047267319
10.45991975,-0.4519647,-1.734970626,1.486183879,2.328763123
10.46997975,-0.5634730028,-1.543249488,0.7751326346,1.816576838
10.48004075,-0.5711944704,-1.295960944,0.2630609697,1.440478727
10.49010075,-0.6272496803,-1.082666723,-0.1025215709,1.255436206
10.50016175,-0.7488187024,-1.037911695,-0.4377056068,1.352618326
10.51022175,-0.6133641511,-1.08163732,-0.6277582419,1.392923287
10.52028275,-0.2855726769,-1.117359349,-0.6580848259,1.327825029
10.53034275,0.01352351345,-1.110228378,-0.6613177514,1.292335523
10.54040375,0.123984178,-1.066968557,-0.6602044415,1.260818735
10.55046375,0.1514920751,-0.9881173186,-0.7060290706,1.223847512
10.56052475,0.1795473082,-0.9190788049,-0.8076197648,1.236605341
10.57058475,0.2663224735,-0.8379425481,-0.9624628061,1.303614217
10.58064575,0.4648195843,-0.781764035,-1.161281587,1.475054974
10.59070575,0.6716912967,-0.7016111337,-1.352853913,1.665425198
10.60076675,0.7784006435,-0.610992155,-1.521264834,1.814790806
10.61082675,0.7767917821,-0.4529956372,-1.786377591,1.999938854
10.62088775,0.6854211438,-0.2421014059,-2.167213179,2.285875805
10.63094775,0.4585458143,-0.100184585,-2.553084388,2.59587001
10.64100875,0.1770192279,-0.02204071395,-2.875637269,2.881164921
10.65106875,-0.08731786005,0.1346186918,-3.153986369,3.158065328
10.66112975,-0.2384181717,0.3024290302,-3.392748064,3.414534518
10.67118975,-0.3108686454,0.3366786573,-3.442640017,3.473004768
10.68125075,-0.3823505279,0.2398152908,-3.34124345,3.371588808
10.69131075,-0.3114746362,0.202904742,-3.265841265,3.286929563
10.70137175,-0.2410646581,0.2692327789,-3.179481983,3.199953772
10.71143175,-0.4384348642,0.384371618,-3.035796599,3.091282527
10.72149275,-0.7186358137,0.4227914062,-2.636680276,2.765370298
10.73155275,-0.810589858,0.4080076716,-2.34242792,2.512069811
10.74161375,-0.6363849315,0.406904302,-2.29027251,2.411618764
10.75167375,-0.3426865618,0.4055587846,-2.310834829,2.37104821
10.76173475,-0.06142467152,0.5246502683,-2.40953232,2.466754325
10.77179475,0.1726137895,0.6319270874,-2.398054821,2.485919204
10.78185575,0.2207452548,0.794854489,-2.163141763,2.315103542
10.79191575,0.1012441005,1.023689513,-1.71262666,1.997818977
10.80197675,-0.044639435,1.201534843,-1.257559501,1.739866247
10.81203675,0.01354481924,1.33434806,-0.8677291417,1.591735553
10.82209775,0.1288049149,1.386157169,-0.5463766944,1.495509911
10.83215775,0.262047428,1.361456629,-0.2775152868,1.413947574
10.84221875,0.3942883495,1.461581427,-0.07032446265,1.515463328
10.85227875,0.2963189091,1.52221603,0.2057769674,1.56438189
10.86233975,0.2495811459,1.542007978,0.7056659585,1.714072284
10.87239975,0.2870168295,1.529761423,1.441512321,2.12143971
10.88246075,0.2580691652,1.533107053,2.407436678,2.865792786
10.89252075,0.064207599,1.491323581,3.402414681,3.715453445
10.90258175,-0.2341231908,1.340432673,4.227378457,4.440979851
10.91264175,-0.5909835312,1.057829578,4.710875364,4.864217475
10.92270275,-0.8683017303,0.78596811,4.797545133,4.938434273
10.93276275,-0.9970939641,0.5450657487,4.712631868,4.847699677
10.94282375,-1.001193593,0.3464754113,4.65624132,4.77525047
10.95288375,-0.8673200559,0.2894780322,4.603528086,4.693454213
10.96294475,-0.7956995579,0.3321103008,4.398983127,4.482687541
10.97300475,-0.9459186941,0.4763908587,3.932254865,4.072387353
10.98306575,-1.07548086,0.6496350876,3.05243602,3.300916613
10.99312575,-0.9337718345,0.857937906,2.042592641,2.404198824
11.00318675,-0.6563951267,1.175632335,1.140152673,1.764345224
11.01324675,-0.4448450206,1.425948202,0.4319817674,1.554935244
11.02330775,-0.3481617118,1.356855748,0.0363030231,1.401282272
11.03336775,-0.05930088971,0.830651728,0.08470218122,0.8370623323
11.04342875,0.3905834075,0.01493108444,0.6373073298,0.7476222095
11.05348875,0.8112720819,-0.9437309584,1.518088626,1.963003716
11.06354975,1.309337765,-1.770183874,2.414917021,3.267987232
11.07360975,1.777509997,-2.21940221,2.822311832,4.006336485
11.08367075,2.087582873,-2.218975071,2.382375512,3.867501221
11.09373075,2.095138937,-1.919732115,1.329156318,3.137138039
11.10379175,1.748253307,-1.552639677,0.1102328789,2.340775701
11.11385175,1.079093124,-1.145509161,-0.7567267692,1.746215511
11.12391175,0.1469613601,-0.8436762547,-0.8926143068,1.236991336
11.13397275,-0.7984323272,-0.7727000467,-0.3598867679,1.167937511
11.14403375,-1.442170425,-0.9837042788,0.4192886317,1.795364197
11.15409375,-1.510433159,-1.449540694,1.059890283,2.346474795
11.16415375,-1.102802341,-1.953158454,1.366757423,2.626599856
11.17421475,-0.4893797173,-2.333395433,1.236083263,2.685540651
11.18427475,0.1537775142,-2.603033643,0.7272725898,2.707093846
11.19433575,0.6881957938,-2.587469817,0.02534943402,2.677546657
11.20439238,1.004419648,-2.353659836,-0.735334146,2.66257202
11.21445338,1.047641682,-2.061882752,-1.492426366,2.752498871
11.22451338,0.9425093289,-1.804772932,-2.137623344,2.952111572
11.23457438,0.776993511,-1.523629448,-2.698138606,3.194544967
11.24463438,0.5919565079,-1.220388459,-3.202296064,3.4777091
11.25469537,0.2538577812,-0.9421404427,-3.579936733,3.710528184
11.26475537,-0.03527113572,-0.6503453781,-3.814186133,3.869393882
11.27481637,-0.154724489,-0.2782276969,-4.006611568,4.019239552
11.28487637,-0.05654670496,0.03578620233,-4.0213179,4.021874667
11.29493738,-0.0220228434,0.2746948823,-3.892088587,3.901832371
11.30499738,-0.1360391632,0.4831522865,-3.838295372,3.870975865
11.31505838,-0.2498979371,0.6566580322,-3.682973444,3.749392236
11.32511838,-0.2767719412,0.8888937966,-3.233065867,3.364439001
11.33517938,-0.3571198289,0.9827885317,-2.685714442,2.882094713
11.34523938,-0.3342651094,1.068512222,-2.172936434,2.444402642
11.35530038,0.04438272396,1.15734663,-1.481853431,1.880773947
11.36536038,0.3901879895,1.178504268,-0.7271433663,1.43869957
11.37542138,0.5817858244,1.091025025,-0.2343809617,1.258469223
11.38548138,0.5989914758,1.093469527,-0.005702789426,1.246795459
11.39554237,0.5370788907,1.313788666,0.02634813845,1.419573393
11.40560237,0.3998459818,1.542764169,-0.124949736,1.598627701
11.41566337,0.4401917698,1.736308469,-0.1652417296,1.798844274
11.42572337,0.5253680141,1.720240759,0.3349641806,1.829601273
11.43578438,0.5535845572,1.500720642,1.534212908,2.216399683
11.44584438,0.5621321632,1.187408262,2.818018806,3.109205838
11.45590538,0.5786836207,0.9040732415,3.61320856,3.769283653
11.46596538,0.4130579849,0.675723829,3.960455402,4.038864516
11.47602638,0.120290035,0.6265396821,4.052841409,4.102748487
11.48608638,-0.252933446,0.6435194117,4.097271477,4.155204702
11.49614738,-0.5899729496,0.6211277917,4.198237689,4.284748243
11.50620738,-0.8476556504,0.6043814757,4.243643657,4.369474632
11.51626838,-0.9873406622,0.5542607877,4.069700686,4.224276302
11.52632838,-1.079711394,0.5908090284,3.478893338,3.690193879
11.53638937,-1.188998705,0.8134321895,2.526174917,2.908083486
11.54644937,-1.455674715,0.9724850799,1.401218573,2.242349125
11.55650937,-1.961661183,0.8371821177,0.3708321708,2.164833711
11.56657037,-2.298024602,0.5555795541,-0.1478912866,2.368851525
11.57663037,-2.497386736,0.4079769737,-0.1688798672,2.536120291
11.58669138,-2.637397437,0.3763399556,0.01390818715,2.664149103
11.59675138,-2.681161508,-0.03397868179,0.3081967968,2.699030724
11.60681238,-2.140348585,-0.6426144089,0.5895712459,2.311198736
11.61687238,-1.168307747,-0.9076235247,0.9322870803,1.748680261
11.62693338,-0.3924249515,-1.001351907,0.9901388472,1.461874796
11.63699338,-0.04848912301,-0.958453078,0.8629227304,1.290588678
11.64705438,-0.04281780805,-0.6771926495,0.626147334,0.9233004566
11.65711438,-0.05388187297,-0.3961552193,0.187041319,0.441391741
11.66717537,-0.5546139229,-0.2752076831,-0.08186920524,0.624530575
11.67723537,-1.594291587,-0.2805156393,-0.1545898569,1.626146584
11.68729637,-2.974983509,-0.4176226138,0.2490030938,3.014454855
11.69735637,-4.009170602,-0.7569166575,1.120673259,4.231108636
11.70741738,-4.171948607,-1.450557963,2.385143584,5.019779228
11.71747738,-3.718911308,-2.413629903,3.483012702,5.638021649
11.72753838,-2.958075993,-3.234038552,3.926651478,5.884539979
11.73759838,-2.039187661,-3.41047156,3.563989037,5.33775425
11.74765938,-1.364261831,-3.063352187,2.672849983,4.288293833
11.75771938,-1.216256816,-2.532805952,1.638493906,3.25254499
11.76778038,-1.326442186,-1.926887353,0.6867461228,2.438024607
11.77784038,-1.371238729,-1.361156813,-0.1674443758,1.939350701
11.78790138,-1.36588458,-0.818064573,-0.8503658348,1.804990965
11.79796138,-1.3699367,-0.4279971092,-1.452952983,2.042297838
11.80802237,-1.316356616,-0.2974774983,-1.819021427,2.264978268
11.81808237,-1.151563953,-0.3743057458,-1.716499271,2.100612786
11.82814337,-1.103199513,-0.6586984912,-1.394277343,1.896033274
11.83820337,-1.22495433,-0.9424314878,-1.186086645,1.948202184
11.84826438,-1.449665824,-0.9213549066,-1.046147572,2.011181396
11.85832438,-1.611144871,-0.6521395963,-0.8475591713,1.933760687
11.86838438,-1.8249315,-0.3304995025,-0.7555146414,2.002600129
11.87844538,-2.102215822,-0.02219734624,-0.8120507848,2.253714836
11.88850538,-2.177854234,0.2943100981,-0.9232507932,2.383707098
11.89856638,-2.040926623,0.5944007902,-1.105295082,2.395907135
11.90862638,-1.760038224,0.8013256757,-1.205045072,2.278594087
11.91868738,-1.445767632,0.8881829213,-0.9892167413,1.964093355
11.92874738,-1.329810621,0.9159313948,-0.7013670856,1.760466528
11.93880838,-1.47612813,0.9615769529,-0.7043994516,1.897304161
11.94886838,-1.6091058,1.111432319,-0.9057062227,2.15518144
11.95892937,-1.564580276,1.327425396,-1.192785215,2.373332297
11.96898937,-1.296204626,1.503473803,-1.632095883,2.56988655
11.97905037,-1.087048114,1.718490395,-2.070215473,2.901839924
11.98911037,-1.007686853,1.851167226,-2.339512498,3.148900065
11.99917138,-0.9594403803,1.864532938,-2.451253374,3.225779289
12.00923138,-0.9088969021,1.831231583,-2.531404082,3.253845312
12.01929238,-0.7510308503,1.658143767,-2.532338467,3.118689821
12.02935238,-0.5154853791,1.474066986,-2.523062444,2.967228126
12.03941338,-0.1846497713,1.346876305,-2.408397961,2.765601572
12.04947338,0.04944910792,1.165300671,-2.069814354,2.375816139
12.05953438,0.1533255792,0.9994654486,-1.651096995,1.936120142
12.06959438,0.1254651863,0.9015601082,-1.270608732,1.563009498
12.07965537,0.09258624704,0.8497626945,-1.021306261,1.331816552
12.08971537,0.1305982194,0.850689332,-0.9117803103,1.253822782
12.09977637,0.2217354076,0.7875022732,-0.8720093036,1.195711774
12.10983637,0.2836025307,0.6843899873,-0.7679879218,1.067063962
12.11989737,0.438598367,0.6152866425,-0.6768701756,1.014445373
12.12995738,0.6254648177,0.5227839467,-0.5812179136,1.001161104
12.14001738,0.8831483956,0.4809774877,-0.4178274125,1.088976666
12.15007838,1.214762268,0.4737411929,-0.2672633636,1.330980011
12.16013838,1.410949363,0.4730089388,-0.08673759699,1.49065052
12.17019938,1.500162671,0.4476950997,0.2532329696,1.585889617
12.18025938,1.383258265,0.4417071123,0.769885928,1.643542802
12.19032038,1.084546968,0.4874157838,1.262766446,1.734472649
12.20038033,0.7183373865,0.5968424413,1.726356508,1.962787888
12.21044133,0.3676830067,0.6638620211,2.297011426,2.419124856
12.22050133,-0.02647498192,0.7091217361,2.820247765,2.908152681
12.23056233,-0.3537726268,0.7437501166,3.009754854,3.1204076
12.24062233,-0.4403396313,0.7890812407,2.817524132,2.958883307
12.25068333,-0.3497284001,0.8280947406,2.300576473,2.469960114
12.26074333,-0.1973055579,0.7129312702,1.753867657,1.903484236
12.27080433,0.1050076426,0.4616598952,1.464090759,1.538739164
12.28086433,0.2511630553,0.3396926777,1.518107337,1.575793097
12.29092533,-0.03166009633,0.2349877565,1.859453754,1.874510568
12.30098533,-0.6603724028,-0.05567441002,2.369836743,2.460755481
12.31104633,-1.007358751,-0.3717046485,2.879782945,3.073448521
12.32110633,-1.082323272,-0.6880739524,3.251774034,3.495554862
12.33116733,-0.8876821804,-1.055405541,3.394985209,3.664394231
12.34122733,-0.6159130255,-1.271614453,3.078882977,3.387605726
12.35128833,-0.3381835844,-1.290127323,2.342339627,2.695431611
12.36134833,-0.1161903146,-1.166497449,1.273745763,1.731081962
12.37140833,-0.1417342782,-0.9038327017,0.2511303109,0.9487194481
12.38146933,-0.4621870582,-0.6403115561,-0.47565696,0.9218813965
12.39152933,-0.8999204028,-0.4139131401,-0.7880321771,1.265770726
12.40159033,-1.31585551,-0.2501962182,-0.7402563322,1.530376852
12.41165033,-1.563892205,-0.2080781391,-0.4909901136,1.652309485
12.42171133,-1.581708818,-0.354809192,-0.302830807,1.649059988
12.43177133,-1.310644471,-0.5001550394,-0.3559013057,1.447276661
12.44183233,-0.8857925796,-0.5707755905,-0.6581707799,1.242417822
12.45189233,-0.5133412782,-0.6621085142,-1.008534772,1.311125219
12.46195333,-0.2421871042,-0.6336468997,-1.271212749,1.440883355
12.47201333,-0.09583619345,-0.5690176982,-1.459289026,1.569232353
12.48207433,-0.06530590709,-0.5214797618,-1.686096674,1.766105319
12.49213433,-0.1706437529,-0.4444457654,-1.880622429,1.939946403
12.50219533,-0.2907257549,-0.3958680479,-2.060216149,2.117952681
12.51225533,-0.4359717977,-0.2970993662,-2.148074657,2.211914143
12.52231633,-0.4393324849,-0.09627360173,-2.262558462,2.306827352
12.53237633,-0.4727127773,0.07715517998,-2.406626839,2.453826203
12.54243733,-0.6221213798,0.2080782122,-2.642218759,2.722434852
12.55249733,-0.8192480495,0.3070691612,-2.908705612,3.0374376
12.56255833,-0.9528883559,0.3922513258,-3.089143086,3.256480052
12.57261833,-0.8035914718,0.4074077473,-3.134059643,3.260992206
12.58267833,-0.5839282077,0.2625551856,-3.125122173,3.190030717
12.59273933,-0.2722825404,0.1204730346,-3.130730238,3.144856651
12.60279933,0.1101731277,-0.03130953748,-2.998417688,3.000604445
12.61286033,0.4789193043,-0.212097369,-2.70157443,2.751881791
12.62292033,0.8527023091,-0.2818124421,-2.12849584,2.310197832
12.63298133,1.187956731,-0.1889489731,-1.377061386,1.828453163
12.64304133,1.425712559,-0.2026293016,-0.4914274853,1.521583356
12.65310233,1.300017742,-0.2996301508,0.4940458685,1.422640389
12.66316233,0.9191614699,-0.2660106342,1.034803973,1.409410774
12.67322333,0.4085335921,-0.09586447936,0.9706424761,1.057467026
12.68328333,0.09903991945,0.1924805817,0.7139526325,0.7460469432
12.69334433,0.01385820716,0.5811961327,0.4862538689,0.7579075271
12.70340433,-0.04260068449,0.7776476683,0.3242403871,0.843612792
12.71346533,0.05378792009,0.8175370811,0.4287266225,0.9246980784
12.72352533,0.09373379052,0.898236697,0.8122139221,1.214622016
12.73358633,-0.05899328962,0.8457772323,1.45039658,1.680020707
12.74364633,-0.2345046668,0.7561687987,2.069692147,2.21594433
12.75370733,-0.3501409943,0.6092468708,2.515582101,2.611883185
12.76376733,-0.6230410738,0.4920397985,2.944094716,3.049258441
12.77382833,-1.119317363,0.5814448952,3.295241066,3.528393856
12.78388833,-1.617570084,0.8041391366,3.303098554,3.764788544
12.79394833,-2.096031514,0.9169605048,2.82913027,3.638425863
12.80400933,-2.159657114,1.041122767,2.373291278,3.373509591
12.81406933,-1.82885352,1.166866116,1.990848876,2.944445784
12.82413033,-1.312914361,1.183802211,1.527924812,2.336597104
12.83419033,-0.9397290509,1.052822095,1.168678899,1.832303311
12.84425133,-0.691054059,0.808678257,1.192126819,1.597711672
12.85431133,-0.4991189494,0.620592406,1.474703456,1.676008634
12.86437233,-0.4420296593,0.3594093793,1.94014416,2.022059516
12.87443233,-0.5201959325,-0.02614122011,2.482314368,2.536369806
12.88449333,-0.672009239,-0.492133829,2.837080729,2.956825863
12.89455333,-0.7143385488,-0.9129243911,2.78652044,3.018013696
12.90461433,-0.602171082,-1.123790263,2.133476499,2.485404703
12.91467433,-0.3786922905,-1.182150153,0.946112237,1.560773911
12.92473533,-0.2603901261,-1.024678862,-0.3176078904,1.103922352
12.93479533,-0.104133968,-0.8481640658,-1.497166704,1.723871893
12.94485633,0.04747827647,-0.6837160957,-2.413417211,2.508845256
12.95491633,0.1142517981,-0.6341502719,-2.861892804,2.933535488
12.96497633,0.1357745584,-0.7102240824,-2.789547544,2.881740529
12.97503733,0.0466243089,-0.8676050346,-2.123909284,2.294755536
12.98509733,-0.2862559606,-1.155806985,-0.9554479015,1.52666727
12.99515833,-0.5717697268,-1.386048118,0.2588983369,1.521538154
13.00521833,-0.7463292503,-1.509928252,1.015493544,1.966753115
13.01527933,-0.7737423129,-1.595425655,1.441500626,2.28516613
13.02533933,-0.553010653,-1.387475716,1.584722326,2.177671806
13.03540033,-0.417487068,-1.041366157,1.221262325,1.658378905
13.04546033,-0.824569235,-0.7353424783,0.5263166517,1.223786011
13.05552133,-1.314864553,-0.3467402902,-0.02675276577,1.360078429
13.06558133,-1.456794165,-0.00803166233,-0.4556472033,1.526410207
13.07564233,-1.277514294,0.149882428,-0.8771776575,1.556903387
13.08570233,-0.9736472871,0.2129466588,-1.216641271,1.572752778
13.09576333,-0.6705834686,0.3497698423,-1.42187737,1.610514324
13.10582333,-0.4396715869,0.4985781185,-1.603446865,1.735780255
13.11588433,-0.3633580771,0.6279258377,-1.801612512,1.94219659
13.12594433,-0.4306579212,0.7459346364,-1.959827058,2.140749127
13.13600433,-0.5610927841,0.9429495511,-2.049041535,2.324338655
13.14606533,-0.6581105536,1.221057088,-2.260918903,2.652516578
13.15612533,-0.7273238991,1.472247771,-2.58256488,3.060417441
13.16618633,-0.7949053598,1.723811361,-2.88467531,3.45322339
13.17624633,-0.7073256176,1.894605168,-3.027528636,3.640847142
13.18630733,-0.5551526708,1.949267279,-3.046012269,3.658692137
13.19636733,-0.3433669949,1.954052055,-2.928673854,3.5374215
13.20642808,-0.05381368895,1.891262022,-2.662957664,3.266666721
13.21648808,0.2510799152,1.749080249,-2.326438124,2.921410136
13.22654908,0.4443685821,1.575619966,-1.82871728,2.454434477
13.23660908,0.4914066181,1.41106353,-1.202240748,1.917801753
13.24667008,0.4987396843,1.292593532,-0.7473665464,1.574196959
13.25673008,0.4544552484,1.218536061,-0.5579126662,1.415141776
13.26679108,0.3802763012,1.204613036,-0.5305436039,1.370101875
13.27685108,0.4263716929,1.204688392,-0.4456899798,1.35340552
13.28691208,0.5202454146,1.179319151,-0.1993514621,1.304296729
13.29697208,0.5535564175,1.109379362,0.05178586543,1.240898486
13.30703208,0.4909883229,0.9824091205,0.303868103,1.139531938
13.31709308,0.4538284269,0.8096374927,0.6267612916,1.119956619
13.32715308,0.5306566744,0.5466727828,1.029616908,1.280842932
13.33721408,0.6619068584,0.2772814713,1.406640696,1.579127528
13.34727408,0.7851195328,0.07908903692,1.634061717,1.814614408
13.35733508,0.9385264248,0.02662007052,1.671428933,1.917085068
13.36739508,1.016079508,0.02100849766,1.634009677,1.924278188
13.37745608,0.9802212386,0.02639542781,1.611383291,1.886289083
13.38751608,0.8915634891,0.04062594272,1.741625342,1.95698614
13.39757708,0.7172805753,0.05646089707,2.093318406,2.213517835
13.40763708,0.5338883574,0.1068393742,2.473482733,2.532699797
13.41769808,0.364435792,0.2887808979,2.731182391,2.770481024
13.42775808,0.08581691634,0.6372630371,2.657320363,2.734011747
13.43781908,-0.4618702488,1.082746172,2.239649071,2.530156391
13.44787908,-1.125711074,1.463502383,1.7339421,2.532907392
13.45793908,-1.558220552,1.559006272,1.76587433,2.824334257
13.46800008,-1.705740687,1.28364583,2.215358568,3.076542132
13.47806008,-1.560464568,0.6294888715,2.952639252,3.398438532
13.48812108,-1.269161692,-0.2073238483,3.995327611,4.197189214
13.49818108,-0.9250677424,-1.078196453,4.9268183,5.12755268
13.50824208,-0.502775396,-1.851117086,5.312881883,5.648551272
13.51830208,0.07396318495,-2.37518139,4.769826992,5.328996784
13.52836308,0.5383136399,-2.398728859,3.583858461,4.346000826
13.53842308,0.5930397411,-1.988602375,2.053062665,2.919126899
13.54848408,0.2891526895,-1.598035852,0.344764114,1.660177748
13.55854408,-0.1061137348,-1.097074335,-1.00095795,1.488875092
13.56860508,-0.4502197447,-0.6531382276,-1.763616135,1.933812099
13.57866508,-0.8128420593,-0.4099407611,-1.96119706,2.162188139
13.58872508,-0.9717993477,-0.3376897871,-1.808698753,2.080821843
13.59878608,-1.007165208,-0.4730787764,-1.473408882,1.846379977
13.60884608,-0.9338785462,-0.6570142738,-1.090030341,1.578595274
13.61890708,-0.7579643324,-0.8953736079,-0.7999610817,1.419908997
13.62896708,-0.5401534663,-1.130802098,-0.5141906959,1.354574186
13.63902808,-0.3779011988,-1.30093707,-0.3825476521,1.407689342
13.64908808,-0.3628866819,-1.426357946,-0.4135583603,1.528795032
13.65914908,-0.3980930597,-1.483971,-0.6173431814,1.655826264
13.66920908,-0.4020571064,-1.471530756,-1.015335084,1.832473197
13.67927008,-0.3698808654,-1.377015778,-1.425303254,2.016053986
13.68933008,-0.3158202869,-1.206041511,-1.76615792,2.161849296
13.69939108,-0.1215236879,-1.040324549,-2.146643844,2.388539923
13.70945108,0.07562561688,-0.8972409162,-2.440986248,2.601763701
13.71951208,0.1878048923,-0.6915045138,-2.611199865,2.707732244
13.72957208,0.1509590831,-0.4687215775,-2.730882429,2.774924756
13.73963208,0.01394283647,-0.2410529271,-2.848348898,2.858564738
13.74969308,-0.06083652842,-0.01526642226,-2.911022279,2.911697934
13.75975308,-0.02286886698,0.2313073727,-3.033301592,3.042194049
13.76981408,-0.07830445935,0.4466323317,-3.150848753,3.183309581
13.77987408,-0.1582165741,0.6148456163,-3.245813382,3.30732099
13.78993508,-0.04826443462,0.7131258363,-3.062590295,3.144890655
13.79999508,0.260372219,0.7620766061,-2.661047963,2.780239325
13.81005608,0.451184718,0.6981941671,-2.108359199,2.266323291
13.82011608,0.4231435913,0.6648223532,-1.378303335,1.587689939
13.83017708,0.4551052395,0.619620818,-0.6402502334,1.000485431
13.84023708,0.4430507294,0.3331724475,-0.1108930296,0.5653274207
13.85029808,0.4350650773,0.2041382852,0.06368144095,0.4847776675
13.86035808,0.4671743312,0.3020679646,0.09499269605,0.5643762249
13.87041808,0.3358620206,0.3516332768,0.09884835005,0.496205859
13.88047908,-0.03220869306,0.4425400116,-0.07158629179,0.4494481716
13.89053908,-0.3007590288,0.6104961649,-0.2247178531,0.7167005472
13.90060008,-0.3633139306,0.7258618028,-0.2788718408,0.8582784354
13.91066008,-0.3736313792,0.7257129181,-0.2155342162,0.8442242862
13.92072108,-0.3541814568,0.6106945317,0.1276739538,0.7174210437
13.93078108,-0.1784343638,0.4814450457,0.6064609283,0.7946213009
13.94084208,0.06359705832,0.2838843665,1.1284407,1.165338291
13.95090208,0.3014637097,0.1443579604,1.471799144,1.509275425
13.96096308,0.4437299931,0.1246670962,1.710074351,1.771099228
13.97102308,0.4250701758,0.1527923497,1.940219589,1.99210497
13.98108408,0.4023024702,0.2481955203,2.208384009,2.258408339
13.99114408,0.3619233896,0.4107690192,2.400127659,2.46177426
14.00120408,0.08402796071,0.6615424307,2.40731681,2.497973841
14.01126508,-0.197513865,0.9135989405,2.27144506,2.456244575
14.02132508,-0.3457894233,1.12971839,2.207621532,2.503882344
14.03138608,-0.532115372,1.220803757,2.337951876,2.690637017
14.04144608,-0.7626526299,1.140395917,2.500783383,2.852377852
14.05150708,-0.9649555472,0.8015141022,2.752211902,3.024604837
14.06156708,-1.006256551,0.32171037,3.048789697,3.226634225
14.07162808,-0.6133506294,-0.3207738653,3.466596059,3.535022363
14.08168808,0.05093209885,-1.106058216,4.065968408,4.214031081
14.09174908,0.5025620458,-1.724006365,4.523633485,4.867034669
14.10180908,0.7210591923,-1.910543947,4.424562356,4.873074653
14.11186908,0.4488443334,-1.688591534,3.462408283,3.878282316
14.12193008,-0.0459276497,-1.455967661,2.103480867,2.558629113
14.13199008,-0.4748614098,-1.111127022,0.8764777458,1.492752443
14.14205108,-0.6734706775,-0.7430496202,-0.08945187449,1.006820306
14.15211108,-0.8584216169,-0.5283453432,-0.8602616626,1.325174178
14.16217208,-0.9104537963,-0.4107560822,-1.10113011,1.486652008
14.17223208,-1.027065403,-0.4883938037,-0.8958864087,1.447758373
14.18229308,-1.204717482,-0.6264676883,-0.6077139866,1.487656636
14.19235308,-1.389709498,-0.8089948837,-0.1285574681,1.613162185
14.20241433,-1.437295309,-1.023358707,-0.004312906265,1.764397758
14.21247433,-1.307830645,-1.222642195,-0.07229088128,1.79178707
14.22253533,-1.04491666,-1.355758225,-0.3213132709,1.741600818
14.23259533,-0.7722887682,-1.433149633,-0.8143633586,1.820311921
14.24265533,-0.5407121677,-1.406251564,-1.325421701,2.006652883
14.25271633,-0.3224910463,-1.306365333,-1.705847983,2.172673054
14.26277633,-0.1190408139,-1.259153744,-2.196028842,2.534202349
14.27283733,-0.02384753785,-1.175108717,-2.675708102,2.9224755
14.28289733,0.0321602297,-1.069436739,-3.018000013,3.202038929
14.29295833,0.1860175812,-0.9294173399,-3.109734641,3.250979647
14.30301833,0.2760266953,-0.7507126155,-2.981717455,3.087134456
14.31307933,0.1329495675,-0.6056380789,-2.899533085,2.965091092
14.32313933,-0.07008745856,-0.4157308933,-3.094231918,3.122821735
14.33320033,-0.1098067722,-0.1100851636,-3.40883317,3.412377448
14.34326033,0.03000728489,0.2506527396,-3.761921965,3.770382488
14.35332033,0.1748461468,0.5184688112,-4.030577551,4.067546739
14.36338133,0.4039561724,0.8181702615,-4.220396297,4.317907835
14.37344133,0.6733902052,1.048572485,-4.245920563,4.42501978
14.38350233,0.878956819,1.291681805,-4.056370203,4.346854748
14.39356233,0.9820802877,1.511942618,-3.511239551,3.947056543
14.40362333,0.8996927999,1.636646478,-2.776257992,3.345992718
14.41368333,0.7703475657,1.596956894,-2.139516672,2.778711623
14.42374433,0.6604113599,1.561909853,-1.427660851,2.216736579
14.43380433,0.5067802637,1.557932138,-0.6861233944,1.77615993
14.44386533,0.2620865312,1.557089701,-0.1348169124,1.584737608
14.45392533,-0.07471296245,1.583305254,0.4346288019,1.643575294
14.46398533,-0.2830676018,1.574507241,1.203713661,2.002030693
14.47404633,-0.3495529836,1.481529787,2.070278038,2.569663198
14.48410633,-0.4862577427,1.315492252,2.746376381,3.083755775
14.49416733,-0.7276273696,1.082894325,3.123003727,3.384561122
14.50422733,-0.7840187944,0.9873906559,3.203181918,3.442382921
14.51428833,-0.6907483227,1.057848727,3.032856034,3.285482141
14.52434833,-0.6510724794,1.098746273,2.647470728,2.939428516
14.53440933,-0.6481656823,1.045170064,2.399357581,2.696185456
14.54446933,-0.5152651948,0.9198080257,2.27584509,2.508189765
14.55453033,-0.2291602386,0.6754526643,2.148778662,2.264067237
14.56459033,0.1043682861,0.4795205078,2.009244801,2.068307841
14.57465033,0.4739468322,0.4550396776,1.88651116,1.997651387
14.58471133,0.7588524514,0.5329032478,1.837379345,2.058107328
14.59477133,0.7915837759,0.7537464434,1.856678665,2.154528775
14.60483233,0.5664149563,1.095598059,1.931486188,2.291680585
14.61489233,0.2339652977,1.488194005,1.98308962,2.490402699
14.62495333,-0.1082712843,1.79012361,2.125731277,2.781186558
14.63501333,-0.4682223715,1.771946079,2.460881399,3.068381064
14.64507433,-0.7278576037,1.490740906,2.785702999,3.242256366
14.65513433,-0.6173491748,0.9611692558,2.928361028,3.143288827
14.66519533,-0.3470169366,0.2839523403,3.037778805,3.070692064
14.67525533,0.0830175253,-0.3790977218,3.199023378,3.22247693
14.68531533,0.7573832653,-1.168991579,3.305880075,3.587340769
14.69537633,1.363638225,-1.936135748,3.494687253,4.221489055
14.70543633,1.885415245,-2.363698628,3.326345914,4.495157282
14.71549733,2.059485686,-2.474621186,2.441960979,4.040842081
14.72555733,1.776706589,-2.368415285,1.074824072,3.149813336
14.73561833,1.274509117,-1.941222387,-0.495115909,2.37441732
14.74567833,0.929534065,-1.411583786,-1.939609725,2.57268114
14.75573933,0.765843894,-0.9847029832,-3.063331137,3.307590436
14.76579933,0.6321168295,-0.6791574602,-3.692054754,3.806848415
14.77586033,0.3579996886,-0.5139329799,-3.57055663,3.625074555
14.78592033,-0.01738957938,-0.5063223901,-2.889346066,2.933425549
14.79598033,-0.2035269771,-0.671480066,-2.050377039,2.167107453
14.80604133,-0.1341364975,-0.9820971715,-1.393133043,1.709774
14.81610133,0.02959570943,-1.303905117,-0.8730144399,1.569458082
14.82616233,-0.006560210511,-1.532172522,-0.4315502429,1.591801271
14.83622233,-0.12064878,-1.710533796,-0.2753483087,1.73674946
14.84628333,-0.1025984984,-1.867051626,-0.4413355583,1.921245768
14.85634333,0.006195764523,-1.888720091,-0.8448103952,2.069059345
14.86640433,0.1297114161,-1.860833404,-1.450338108,2.362838682
14.87646433,0.1504882726,-1.779580203,-2.157949435,2.80112445
14.88652433,0.2110002121,-1.599842934,-2.656724532,3.108408554
14.89658533,0.3566615168,-1.382012516,-2.906787141,3.238298552
14.90664533,0.3374470545,-1.133135357,-3.007960929,3.231980074
14.91670633,0.2695350982,-0.8995509318,-3.116423271,3.254832569
14.92676633,0.1377197078,-0.6967222036,-3.29147195,3.367220834
14.93682733,0.08304689842,-0.4491781363,-3.539730109,3.569082099
14.94688733,0.0218478472,-0.3098788214,-3.790560458,3.803268436
14.95694833,-0.2135400233,-0.3066527664,-3.847384869,3.865489049
14.96700833,-0.4639371299,-0.2367666256,-3.939322979,3.973608138
14.97706833,-0.5287378741,-0.07608258136,-3.999128301,4.034647378
14.98712933,-0.3615481811,0.2301065008,-3.597156783,3.62259617
14.99718933,-0.2389823367,0.5163703186,-2.773277666,2.831045721
15.00725033,-0.1877712708,0.7378651133,-1.797011338,1.951653843
15.01731033,0.0655522576,0.8913388829,-0.8572930312,1.238439923
15.02737133,0.2755044842,0.8611950975,0.04186255574,0.9051586548
15.03743133,0.4618366273,0.7149311641,1.262754752,1.522816208
15.04749233,0.6539631236,0.768143677,2.253167834,2.46869961
15.05755233,0.6612576713,0.8499351143,2.640187436,2.851357765
15.06761333,0.5035650625,1.069302253,2.338659974,2.620365538
15.07767333,0.2607116316,1.51019547,1.78711668,2.354240204
15.08773333,-0.02364096897,1.945471559,1.296010206,2.337746979
15.09779433,-0.1598571018,2.201551538,1.263526585,2.543399869
15.10785433,-0.1847588401,2.276913084,1.770476089,2.890165151
15.11791533,-0.05238365186,2.205107522,2.274279791,3.168215869
15.12797533,0.01670704829,2.09689968,2.72341495,3.437187278
15.13803633,-0.009073965065,2.054149078,3.033670551,3.663709566
15.14809633,-0.06868249141,2.087792057,3.267978423,3.878566221
15.15815733,-0.05255088223,2.233601588,3.602103528,4.238736542
15.16821733,-0.07925475067,2.120122774,4.175632938,4.683707113
15.17827733,-0.2473174329,1.952489679,4.661130762,5.059597003
15.18833833,-0.2608843071,1.903693203,4.772977472,5.145232976
15.19839833,-0.5807054052,1.788655667,4.610128423,4.97893482
15.20845883,-1.116942078,1.57378394,4.296221235,4.709763518
15.21851883,-1.501264725,1.25697858,4.31862952,4.741766744
15.22857983,-1.549491536,0.6370860858,4.261850132,4.579319737
15.23863983,-1.285726708,-0.2138223707,4.37029084,4.56051041
15.24870083,-0.6912416084,-1.199787841,4.464029308,4.673848894
15.25876083,-0.04706306021,-2.236407375,4.326415672,4.870483081
15.26882083,0.4049364216,-2.943927485,3.392318294,4.509823273
15.27888183,0.7758065262,-3.256901165,2.124077684,3.964969984
15.28894183,0.9203153448,-3.30229924,0.7256540805,3.504102517
15.29900283,0.7176002719,-3.190476795,-0.6686712098,3.33784564
15.30906283,0.3499953255,-2.896863247,-1.931126,3.499080025
15.31912383,-0.097353619,-2.418319224,-2.825995578,3.720752155
15.32918383,-0.6855368455,-2.205343457,-3.629365586,4.301836246
15.33924483,-1.330873937,-1.965125074,-3.632870992,4.339434714
15.34930483,-1.68805783,-1.863117327,-3.055951366,3.957219246
15.35936483,-1.787355831,-1.969634885,-2.314257204,3.52560475
15.36942583,-1.585782427,-2.158611048,-1.557955527,3.098634051
15.37948583,-1.248792186,-2.194511198,-0.9579119182,2.700547456
15.38954683,-0.8458975388,-2.100171051,-0.5509632504,2.330197758
15.39960683,-0.5060976012,-1.820884642,-0.4437832028,1.94131378
15.40966783,-0.2756088021,-1.435544652,-0.7683393395,1.651391535
15.41972783,-0.1012067514,-1.020936571,-1.184800258,1.567260648
15.42978883,0.01761831857,-0.6355242945,-1.57500133,1.698478944
15.43984883,0.08975220211,-0.3407149903,-1.935880371,1.96768264
15.44990883,0.1708783359,-0.09215080306,-2.292227234,2.300434061
15.45996983,0.2019707589,0.1298543074,-2.612909006,2.623918406
15.47002983,0.1799992248,0.2757061583,-2.803453977,2.822723473
15.48009083,0.06999212153,0.5076863263,-2.836456246,2.882382407
15.49015083,-0.006985266544,0.6457015195,-2.805029801,2.878397372
15.50021183,-0.07413070768,0.7387913123,-2.737645903,2.836549498
15.51027183,-0.1232874457,0.8645946687,-2.613815324,2.755858176
15.52033283,-0.3548795047,1.03372984,-2.711404184,2.92339691
15.53039283,-0.5295529394,1.212626572,-2.944990509,3.228600102
15.54045283,-0.5145356451,1.448560847,-3.169364546,3.522491601
15.55051383,-0.4704616724,1.657260691,-3.345033615,3.762591802
15.56057383,-0.3906565708,1.77764916,-3.308273925,3.775887373
15.57063483,-0.2811713863,1.88481459,-2.887243992,3.459445224
15.58069483,-0.3669772477,1.890822165,-2.266494808,2.974370433
15.59075583,-0.4452060862,1.79672497,-1.648980888,2.479025423
15.60081583,-0.3796264197,1.649987778,-0.9642906457,1.948443568
15.61087683,-0.2896902861,1.453431285,-0.3089288682,1.513875823
15.62093683,-0.2961315424,1.200195684,0.3666245145,1.289409596
15.63099683,-0.2997215135,0.8637381978,1.083971456,1.418051754
15.64105783,-0.251262458,0.4817002036,1.847107943,1.925350789
15.65111783,-0.1237031188,0.342019431,2.184644313,2.21471229
15.66117883,0.08639548919,0.4209916332,1.955553913,2.002221077
15.67123883,0.2284823271,0.5777057835,1.442419224,1.570516273
15.68129983,0.3325647026,0.760963954,1.011092929,1.30842437
15.69135983,0.3833844618,0.9466838023,0.9633170843,1.403984926
15.70142083,0.383227062,0.9883545694,1.235714303,1.628096304
15.71148083,0.3346770823,0.904884835,1.655494686,1.916112723
15.72154083,0.3790399805,0.7538458461,1.936592562,2.112426476
15.73160183,0.5179731501,0.6193671951,2.106690989,2.256115872
15.74166183,0.5378254705,0.4995497064,2.326074427,2.439145011
15.75172283,0.4198832935,0.4489821084,2.583222107,2.655357484
15.76178283,0.400430411,0.6314076354,2.649623088,2.753093283
15.77184383,0.340006527,0.9501551481,2.609083757,2.797448355
15.78190383,0.2477862517,1.186326673,2.698000612,2.957697805
15.79196383,0.1257665555,1.335475842,2.42620858,2.772327726
15.80202483,-0.08236866709,1.31434035,2.184131513,2.550432438
15.81208483,-0.1232608043,1.163644008,2.250054191,2.536139678
15.82214583,-0.1660115156,0.6367367146,2.875491089,2.949820752
15.83220583,-0.06685205709,-0.1598725238,4.177233905,4.180826655
15.84226683,0.1539340551,-1.036177777,5.316814136,5.419028754
15.85232683,0.4197600269,-1.799363234,5.635590885,5.930749628
15.86238783,0.6983154237,-2.190297548,4.970218089,5.476140578
15.87244783,0.806853341,-2.15193762,3.440901055,4.137831304
15.88250783,0.5070053449,-1.754128004,1.369819025,2.282635239
15.89256883,0.1708197906,-1.215745769,-0.6485363227,1.388458332
15.90262883,-0.03581108954,-0.7545907813,-2.19536226,2.321703067
15.91268983,-0.2352923599,-0.4075868914,-3.224582727,3.258745668
15.92274983,-0.5775539387,-0.3083378609,-3.546333954,3.606261957
15.93281083,-0.7170852783,-0.3226191004,-3.131453539,3.228667782
15.94287083,-0.6307462422,-0.4478949648,-2.336085445,2.460842524
15.95293083,-0.5109617538,-0.7864285782,-1.461341398,1.736395838
15.96299183,-0.2490776824,-1.29754817,-0.6915221286,1.491265838
15.97305183,0.222215391,-1.86115544,-0.05337630808,1.875134204
15.98311283,0.6811145233,-2.254786197,0.346353972,2.380743342
15.99317283,1.045364045,-2.483414814,0.4542643368,2.732488099
16.00323383,1.179122904,-2.594503725,0.1894807774,2.856165851
16.01329383,1.144771973,-2.554286576,-0.3870792443,2.825723469
16.02335483,1.06287821,-2.404461177,-1.000764408,2.812947393
16.03341483,0.9592765121,-2.176384683,-1.646609257,2.892781319
16.04347483,0.8126701511,-1.894196886,-2.194296312,3.010539972
16.05353583,0.4969580012,-1.560647293,-2.581594242,3.057321714
16.06359583,0.128929351,-1.224665405,-2.926363619,3.174906638
16.07365683,-0.04779528692,-0.9240458684,-3.238314328,3.367911051
16.08371683,-0.1286313988,-0.6378044893,-3.481054469,3.541338846
16.09377783,-0.3251253266,-0.2778153951,-3.748690301,3.773005015
16.10383783,-0.453468275,0.09887568578,-4.043482355,4.070031872
16.11389783,-0.6652109738,0.3758120982,-4.320118806,4.387159317
16.12395883,-0.8787428109,0.5990098214,-4.459188983,4.584252183
16.13401883,-0.9691197149,0.7985820159,-4.513214332,4.684658991
16.14407983,-0.8033546595,0.931737442,-4.271855303,4.445476476
16.15413983,-0.3798105705,0.9979809867,-3.567525433,3.723903844
16.16420083,0.257218176,0.9987273838,-2.742175156,2.929700013
16.17426083,0.8448184352,1.123485039,-1.680112048,2.190596566
16.18432083,1.154002096,1.21567034,-0.7323450494,1.82918137
16.19438183,1.192803269,1.230232246,0.2809844398,1.736434068
16.2044415,1.037648425,1.145914227,1.176409503,1.942620135
16.2145025,0.740064982,1.014182159,1.884728343,2.264610907
16.2245625,0.3921770661,0.8111409581,2.361522587,2.527556416
16.2346235,0.1249916806,0.7218805068,2.352167627,2.463620695
16.2446835,-0.1245639111,0.905219442,1.992275012,2.191825296
16.2547435,-0.2685001959,1.064620242,1.47143954,1.835931081
16.2648045,-0.4494600452,1.119396958,1.030408621,1.586444392
16.2748645,-0.5951069146,1.204593375,0.8978920037,1.61598499
16.2849255,-0.4315743627,1.243600297,1.058260079,1.688997491
16.2949855,-0.1662739276,1.011225442,1.600197567,1.900225294
16.3050465,0.1140370592,0.6987618586,2.601023371,2.695662286
16.3151065,0.3695675643,0.5750518055,3.622934818,3.686857939
16.3251675,0.4960349451,0.5700729744,4.392859338,4.457381185
16.3352275,0.3751244291,0.6420638935,4.712534219,4.770843023
16.3452875,0.01453760565,0.8620813892,4.502923232,4.584726088
16.3553485,-0.4762199738,1.108399515,3.910232497,4.092096422
16.3654085,-0.7902286837,1.300958705,3.322092649,3.654210516
16.3754695,-0.7764448229,1.333459576,2.868823509,3.257472844
16.3855295,-0.653855681,1.0411129,2.715492557,2.980829272
16.3955905,-0.533187861,0.5135406317,2.700319033,2.799952884
16.4056505,-0.3404701381,-0.1582310642,3.043424876,3.066495062
16.4157105,0.1550715213,-0.8567357185,3.427117413,3.535983178
16.4257715,0.6989954549,-1.55653787,3.665328301,4.043023169
16.4358315,1.212244676,-2.105292335,3.414630684,4.190643826
16.4458925,1.471981869,-2.383029816,2.385862207,3.679388563
16.4559525,1.347150539,-2.315727925,0.9764130932,2.851454528
16.4660135,0.9229672763,-1.957158973,-0.5403376901,2.230314924
16.4760735,0.2835519522,-1.476959311,-1.730634915,2.292794742
16.4861335,-0.4386381646,-1.082677613,-2.322954937,2.600137284
16.4961945,-0.929626451,-0.9488741693,-2.479079688,2.812543978
16.5062545,-1.118353084,-1.09410278,-2.179568346,2.682963415
16.5163155,-1.026358328,-1.266795617,-1.542132377,2.244182439
16.5263755,-0.8885672296,-1.508837015,-0.9360328066,1.985522167
16.5364365,-0.6576701121,-1.905126063,-0.5586400598,2.091438263
16.5464965,-0.4469748689,-2.110253112,-0.2967263138,2.177384035
16.5565565,-0.311581823,-2.129172217,-0.287586531,2.170982168
16.5666175,-0.2274222999,-2.058209969,-0.4556992435,2.12028559
16.5766775,-0.261919849,-1.954526557,-0.811445598,2.132421165
16.5867385,-0.27536945,-1.715402918,-1.153157465,2.085235633
16.5967985,-0.3326312146,-1.463416283,-1.55349878,2.1599975
16.6068595,-0.4488190807,-1.14772818,-1.989789945,2.34050904
16.6169195,-0.4584287969,-0.8202474848,-2.43788313,2.612706844
16.6269795,-0.3246898552,-0.4544222116,-2.758719268,2.814685604
16.6370405,-0.2459636381,-0.09616038501,-2.997411382,3.009023085
16.6471005,-0.3577602452,0.1709578215,-3.216895393,3.241239722
16.6571615,-0.4061363068,0.3952453925,-3.355907097,3.403421524
16.6672215,-0.412666733,0.6503952987,-3.405230116,3.49126052
16.6772825,-0.5201208689,0.9365529165,-3.459878193,3.621935145
16.6873425,-0.5498518043,1.224132869,-3.602987042,3.844782687
16.6974025,-0.5333035262,1.489745856,-3.704764847,4.028528012
16.7074635,-0.4293663809,1.788533314,-3.655836516,4.0924745
16.7175235,-0.309933566,2.009419486,-3.414126654,3.973674156
16.7275845,-0.0861855102,2.06733338,-3.017735134,3.658964415
16.7376445,0.1707058613,2.075064422,-2.50029631,3.253692439
16.7477055,0.4040804623,2.042013913,-1.988293058,2.878612708
16.7577655,0.5726484536,1.960723728,-1.33458078,2.439973288
16.7678255,0.6438769689,1.695224177,-0.5386700642,1.891699765
16.7778865,0.6389143639,1.498403975,0.1965997624,1.640755162
16.7879465,0.5318220611,1.49451236,0.6737202805,1.723456096
16.7980075,0.3094876793,1.523833516,0.9695034385,1.83242684
16.8080675,0.2724689387,1.675702371,1.157030076,2.054491751
16.8181285,0.4361193303,1.806904827,1.174012145,2.198501681
16.8281885,0.5830695806,1.735374668,1.200933895,2.189460572
16.8382485,0.8552883864,1.603504168,1.449031255,2.324313967
16.8483095,1.079384973,1.471186648,1.991220174,2.700818367
16.8583695,1.073370819,1.236872344,2.792487524,3.237277356
16.8684305,0.8878148391,0.8805196336,3.618240674,3.828210494
16.8784905,0.5484486553,0.601230667,4.184259335,4.262663536
16.8885515,0.1811363438,0.4739299849,4.558371794,4.58652084
16.8986115,-0.07782216456,0.4319421525,4.56477391,4.585825025
16.9086715,-0.2279933354,0.4415729553,4.350921938,4.379211041
16.9187325,-0.4272625162,0.5771953216,4.121229858,4.183329206
16.9287925,-0.6686357611,0.8199455492,3.77023729,3.915874578
16.9388535,-0.7859831665,1.083908013,3.353903257,3.611273068
16.9489135,-0.6857821362,1.254358004,3.224055893,3.526789977
16.9589745,-0.4909413625,1.100698878,3.400341259,3.607614463
16.9690345,-0.06717898954,0.6144230819,3.401362182,3.45706428
16.9790945,0.3856079021,-0.07286434695,3.182692105,3.206794615
16.9891555,0.784624566,-0.8347651711,3.11328507,3.317380371
16.9992155,1.359459951,-1.60535525,2.924993032,3.602898982
17.0092765,1.846923463,-2.293574287,2.389030813,3.79197541
17.0193365,2.058923476,-2.571754548,1.636676592,3.678559174
17.0293965,1.824829905,-2.558743324,0.8957864213,3.267966476
17.0394575,1.192584729,-2.400602891,0.09265907228,2.682114517
17.0495175,0.5545102445,-2.171789648,-0.8522158939,2.398004132
17.0595785,0.2265611147,-1.902064607,-1.709977287,2.567723122
17.0696385,0.0963867088,-1.672165828,-2.2572182,2.81077622
17.0796995,0.08935925094,-1.535615363,-2.404469801,2.85439567
17.0897595,0.1076410275,-1.471686731,-2.132972469,2.593649933
17.0998195,-0.01691778559,-1.48590102,-1.656170039,2.225103874
17.1098805,-0.2134904864,-1.593024203,-1.151735423,1.977321113
17.1199405,-0.3508188327,-1.792582803,-0.8216542518,2.002883588
17.1300015,-0.358543699,-1.944393332,-0.6522609991,2.081985453
17.1400615,-0.2284005208,-2.02080153,-0.6604658121,2.138228405
17.1501225,-0.05332255024,-2.009675156,-0.8873547363,2.197506759
17.1601825,0.08389897479,-1.882974471,-1.2734382,2.274703661
17.1702425,0.08249962645,-1.576881649,-1.722056465,2.336416143
17.1803035,-0.1054191952,-1.194137238,-2.248302366,2.547928664
17.1903635,-0.2847499554,-0.8174252531,-2.727402751,2.861466817
17.2004245,-0.3841627262,-0.4974306755,-3.121960584,3.184596704
17.21048463,-0.4468941773,-0.2575081614,-3.519874719,3.557462986
17.22054563,-0.3402761933,-0.02721191838,-3.756720282,3.772197722
17.23060563,-0.3012560422,0.1029067563,-3.830239663,3.843446485
17.24066563,-0.2638683423,0.275666251,-3.930947428,3.949426042
17.25072663,-0.1595444037,0.4904610868,-3.960769982,3.994208976
17.26078663,0.002177667562,0.6630619758,-3.698502479,3.75746943
17.27084762,0.2576699282,0.8469595394,-3.370915146,3.485226416
17.28090762,0.4844122884,0.9386625919,-2.81693941,3.008469771
17.29096762,0.6651885351,0.9752557831,-2.069039598,2.382126043
17.30102862,0.8212407806,0.9275103436,-1.549982264,1.984227022
17.31108862,0.8002564392,0.945054768,-1.138398508,1.68210881
17.32114963,0.6272431753,1.004319807,-0.9543942332,1.520842079
17.33120963,0.5223192027,1.103021977,-0.7854769439,1.451361037
17.34127063,0.4414805692,1.231846809,-0.4729537922,1.391415446
17.35133063,0.3826127024,1.185767241,-0.3061643046,1.28303274
17.36139063,0.3725142686,1.024722643,0.08086172998,1.093326115
17.37145163,0.3516088647,1.042640777,0.7471449369,1.330020354
17.38151163,0.2649058211,0.8134761898,1.307474257,1.562500413
17.39157263,0.1209648403,0.5839622312,1.733685992,1.833387984
17.40163263,0.1044788715,0.4625232366,2.051092739,2.105190015
17.41169363,0.2845516617,0.3742384663,2.212648968,2.262043221
17.42175363,0.4342804541,0.335034201,2.106126148,2.176376525
17.43181363,0.5027487181,0.2559076323,1.965542126,2.044896291
17.44187462,0.4951195635,0.107342454,1.904655654,1.970882784
17.45193462,0.5564736664,-0.004677772522,2.140354578,2.211515893
17.46199562,0.6270332602,-0.1551973826,2.690591605,2.767045377
17.47205562,0.5746404904,-0.232660053,3.332206578,3.389386829
17.48211562,0.4034790396,-0.09607318841,3.795186775,3.817783133
17.49217663,0.1681445067,0.02568835326,3.79447283,3.798283365
17.50223663,-0.202970377,0.1548518121,3.349250627,3.358966481
17.51229763,-0.5249835231,0.3818429165,2.806507977,2.880607356
17.52235763,-0.751803706,0.4880388777,2.406675956,2.568166645
17.53241863,-0.9588780244,0.3012807101,2.200522428,2.419197405
17.54247863,-0.988967723,-0.06945790529,2.303186671,2.507498833
17.55253863,-0.767494563,-0.6322847177,2.637565545,2.818791208
17.56259963,-0.380948731,-1.22916893,2.990355547,3.255488365
17.57265963,-0.06874476425,-1.753474286,3.290824664,3.729467104
17.58272062,0.2104012379,-1.91626267,2.960947561,3.533205592
17.59278062,0.2669328497,-1.784364395,1.772976943,2.529556617
17.60284062,0.3094713436,-1.629297405,0.3041037458,1.686078775
17.61290162,0.4292729717,-0.9224731135,-0.7030434823,1.236730394
17.62296162,0.1178789357,-0.6363112566,-1.367478969,1.512873488
17.63302262,-0.3800764726,-0.6008242124,-1.550927759,1.706113939
17.64308262,-0.8233830542,-0.5609258826,-1.195395997,1.556139161
17.65314363,-1.182095043,-0.6509200864,-0.3441051328,1.392642809
17.66320363,-1.383023207,-0.8439691271,0.4955012405,1.69427228
17.67326363,-1.333142803,-1.071038584,1.04972139,2.006566316
17.68332463,-1.089831754,-1.204405533,1.247300561,2.047946442
17.69338463,-0.8178477144,-1.234394587,0.9614600086,1.765505658
17.70344563,-0.5860842589,-1.169510081,0.4331301606,1.377987781
17.71350563,-0.373657984,-1.069972125,-0.07728732705,1.135972697
17.72356563,-0.1174588223,-0.9521645437,-0.6550811112,1.161699253
17.73362663,0.06049451656,-0.7958291468,-1.36529211,1.581463298
17.74368663,0.2187490153,-0.5931421405,-1.945099091,2.045257735
17.75374762,0.2306513152,-0.407027459,-2.373788291,2.419450812
17.76380762,0.1072338786,-0.2411325954,-2.711117671,2.723931544
17.77386862,-0.05599861071,-0.04766372457,-2.909128366,2.91005765
17.78392862,-0.2561007914,0.1610599472,-3.08330698,3.098113919
17.79398862,-0.393518527,0.2785908821,-3.205085771,3.241148641
17.80404963,-0.4306250307,0.3313174184,-3.321305029,3.365453349
17.81410963,-0.3707182232,0.3854692134,-3.534834235,3.575062459
17.82417063,-0.179734346,0.4635655028,-3.715524309,3.748642194
17.83423063,0.03586395659,0.4959931375,-3.769022239,3.801687001
17.84429063,0.2535372259,0.4259193742,-3.738201565,3.77092023
17.85435163,0.4963262095,0.4086325197,-3.481615802,3.540475792
17.86441163,0.5093941518,0.4222116548,-3.087817522,3.157904706
17.87447263,0.3468818659,0.4014267035,-2.61318324,2.666495279
17.88453263,0.2047965172,0.5294928592,-2.206943255,2.278794162
17.89459263,0.104831011,0.640992976,-1.959368636,2.064215829
17.90465363,0.06912798985,0.6683944172,-1.692475401,1.8209895
17.91471363,0.1660177282,0.6575851813,-1.220506865,1.39628692
17.92477462,0.3393147283,0.6258046141,-0.5560152447,0.9032822661
17.93483462,0.4898530494,0.5792827045,0.03902841032,0.7596365438
17.94489562,0.4925010341,0.6649041411,0.2757932818,0.8721907588
17.95495562,0.4202684058,0.8553363336,0.2648923177,0.9891378652
17.96501562,0.3421339999,1.065614341,0.4628229064,1.211112976
17.97507663,0.218879993,1.225179375,0.8038027024,1.481577449
17.98513663,0.0004085559212,1.247764245,1.241408907,1.760117
17.99519763,-0.08046487763,1.171986304,1.980815638,2.302967018
18.00525763,-0.02934091701,1.012312951,2.771954441,2.951164147
18.01531763,-0.01876360539,0.8226723982,3.50094085,3.596349369
18.02537863,-0.10354593,0.7028159525,3.988135536,4.050913116
18.03543863,-0.2050483495,0.672908687,4.287252776,4.344581371
18.04549963,-0.3536802774,0.9830782612,4.14151268,4.271259754
18.05555963,-0.6308811667,1.261210795,3.379697664,3.662105953
18.06562062,-0.8323698592,1.692489873,2.303843898,2.977424769
18.07568062,-0.8347509916,2.008724691,1.782840611,2.812526399
18.08574062,-0.6045400083,2.045594309,1.71049535,2.734176118
18.09580162,-0.2582509222,1.910808387,1.80386369,2.640417854
18.10586162,-0.05946583601,1.582543946,1.823251303,2.415000381
18.11592263,0.1040445513,0.9532354613,2.169256196,2.371741039
18.12598263,0.3445468169,-0.03868086644,2.891851013,2.912560901
18.13604263,0.802963627,-1.025566615,3.661401896,3.886180813
18.14610363,1.280026111,-1.876044497,4.227988322,4.799364026
18.15616363,1.739796771,-2.416689312,4.147331829,5.105647984
18.16622463,2.098054359,-2.596399685,3.288069456,4.685565511
18.17628463,2.008444463,-2.447599595,1.854953737,3.669529439
18.18634463,1.581188415,-2.062028932,0.1851672864,2.605073328
18.19640563,1.098631229,-1.510947276,-1.348436342,2.303960246
18.20646583,0.6560945798,-0.9948164736,-2.37921977,2.660978509
18.21652683,0.4067827165,-0.6408508886,-2.785445722,2.887017476
18.22658683,0.2654184209,-0.4503785697,-2.74880356,2.798072338
18.23664683,0.2667717955,-0.5114384115,-2.352499164,2.422186771
18.24670783,0.3514953921,-0.6932629909,-1.736835303,1.902829329
18.25676783,0.3470056807,-0.9651763527,-1.102075605,1.505506218
18.26682883,0.2974951131,-1.274505024,-0.5633377129,1.424856406
18.27688883,0.3062551557,-1.56644393,-0.157928617,1.603895338
18.28694983,0.3990939568,-1.678696291,0.0106857866,1.725517723
18.29700983,0.3419091379,-1.740916952,0.01054077566,1.774205399
18.30706983,0.1019242048,-1.711469496,-0.1517568809,1.721204965
18.31713083,-0.1755319704,-1.557844284,-0.4826367813,1.640313552
18.32719083,-0.2674569978,-1.327402592,-0.9450883895,1.651279186
18.33725183,-0.1464202094,-1.114582214,-1.459465612,1.842219385
18.34731183,0.02416961208,-0.8716986702,-2.066214223,2.24269569
18.35737183,0.1702321089,-0.636621159,-2.519529557,2.604283905
18.36743283,0.326390993,-0.3374830149,-2.652168381,2.693403607
18.37749283,0.3102348072,-0.01843583241,-2.855142778,2.872007277
18.38755383,0.192641033,0.298256384,-2.96106509,2.982276631
18.39761383,0.08814472944,0.7030066448,-3.042602173,3.124006373
18.40767383,-0.0905769336,1.01640337,-3.175743273,3.335659655
18.41773483,-0.361724767,1.333873413,-3.156362092,3.445676239
18.42779483,-0.6722070211,1.604245741,-3.088584092,3.544688755
18.43785583,-0.7461310297,1.724155908,-2.732904396,3.316352145
18.44791583,-0.4092920125,1.754897644,-2.124263626,2.785620513
18.45797583,0.1044446471,1.641246191,-1.548453802,2.258828661
18.46803683,0.5005244738,1.373692074,-0.8000575608,1.666627362
18.47809683,0.6612864688,1.103977631,0.321924305,1.326537471
18.48815783,0.4696814711,0.921248268,1.315791922,1.67350155
18.49821783,0.1093693548,0.9031211686,1.774649831,1.994234571
18.50827783,-0.2533853079,0.9522975679,1.774485524,2.029747188
18.51833883,-0.3775354189,1.031008546,1.502395284,1.860834008
18.52839883,-0.2811572616,1.053554678,1.256388888,1.66359247
18.53845983,-0.09283978779,0.940769636,1.258007398,1.573610291
18.54851983,0.1065780311,0.7454406197,1.402039522,1.591463294
18.55857983,0.2796874726,0.5701371476,1.63721512,1.756062299
18.56864083,0.3885642543,0.4312385863,1.772167688,1.864812916
18.57870083,0.4533255664,0.330656683,1.777098645,1.863576536
18.58876183,0.5884714212,0.1886706457,1.927733445,2.024364459
18.59882183,0.8251196773,-0.001668064445,2.338889769,2.480167458
18.60888183,1.070889115,-0.1076220971,2.766699548,2.968671825
18.61894283,1.107241035,-0.01887612775,2.96207198,3.162310774
18.62900283,0.8300191323,0.1600324452,2.847392879,2.970216886
18.63906383,0.3740338869,0.3003664979,2.506030675,2.551531133
18.64912383,-0.1116740897,0.485981681,2.044178406,2.104118498
18.65918383,-0.5388596602,0.6697199079,1.643783882,1.854971682
18.66924483,-0.7532886064,0.7740128928,1.35671366,1.734131379
18.67930483,-1.018189841,0.6584510078,1.244346548,1.737431038
18.68936583,-1.223533091,0.4633742988,1.094507554,1.705783032
18.69942583,-1.229755552,0.07880687222,0.9197687763,1.537687824
18.70948583,-0.9169621859,-0.4357174073,0.9202429855,1.370224968
18.71954683,-0.3463453839,-0.9807919268,0.8864940262,1.366667329
18.72960683,0.03102082207,-1.539882953,0.7379770875,1.707867671
18.73966783,0.255261387,-1.924600507,0.4516482925,1.993296683
18.74972783,0.5033652339,-2.037577777,-0.08030273616,2.100368607
18.75978783,0.5298884599,-1.909423766,-0.7752583498,2.127840786
18.76984883,0.3677078208,-1.57341425,-1.486152304,2.195333713
18.77990883,0.216289512,-1.421111385,-2.038274472,2.49417352
18.78996983,0.1416824846,-1.341785134,-2.35390308,2.713175443
18.80002983,0.1786716145,-1.202123511,-2.114010533,2.438455457
18.81008983,0.08080951617,-1.161790587,-1.444327755,1.855362555
18.82015083,-0.2699883854,-1.160744959,-0.8742353386,1.478008801
18.83021083,-0.4394121167,-1.157813457,-0.1224488819,1.24443109
18.84027183,-0.3114720415,-1.367822201,0.7396154773,1.585869938
18.85033183,-0.2180964478,-1.603777817,1.100983345,1.957507005
18.86039283,-0.10422883,-1.542576912,0.8995216227,1.788727572
18.87045283,0.04044905988,-1.353092187,0.243519575,1.375425889
18.88051283,0.07990846938,-1.106932229,-0.467679019,1.204328854
18.89057383,0.1897189601,-0.7831346224,-0.913797015,1.218325944
18.90063383,0.3059577883,-0.5533156583,-1.019531631,1.199672094
18.91069483,0.291905248,-0.473011168,-0.712004925,0.9032714166
18.92075483,0.1851268492,-0.3866078125,-0.1835546243,0.4662937391
18.93081483,0.02481419908,-0.2548172727,0.06606242716,0.2644084553
18.94087583,-0.1791162405,-0.04685110778,-0.2601929104,0.3193399514
18.95093583,-0.416010244,0.2470143827,-0.867014612,0.9928720793
18.96099583,-0.7158819214,0.5818092133,-1.710153288,1.943093707
18.97105683,-0.9754984425,0.911741207,-2.574349542,2.900024966
18.98111683,-1.047784061,1.212669842,-3.284943534,3.655034009
18.99117783,-0.7771877848,1.390376081,-3.716615984,4.043562893
19.00123783,-0.391463852,1.471488656,-3.742935471,4.040802984
19.01129783,-0.1139652846,1.478382085,-3.362047843,3.67450233
19.02135883,0.1157995379,1.371918468,-2.767364962,3.090934914
19.03141883,0.2314678423,1.194844385,-2.157867574,2.47742264
19.04147983,0.163855099,1.129991309,-1.713583265,2.05914945
19.05153983,-0.00973684289,1.135406123,-1.36238546,1.773509518
19.06159983,-0.1811012057,1.184531578,-1.140113497,1.654016775
19.07166083,-0.2384233611,1.227934583,-0.9570015067,1.574966959
19.08172083,-0.04102875193,1.237357663,-0.5517497009,1.355420628
19.09178183,0.2013845938,1.116196484,0.04411139488,1.135075399
19.10184183,0.3729328927,0.9238872626,0.5927228951,1.159295927
19.11190183,0.4013227327,0.7502376755,0.9773749602,1.29583113
19.12196283,0.4241827877,0.6879024097,1.228431011,1.470436504
19.13202283,0.5168197502,0.7233510084,1.501044577,1.744555576
19.14208383,0.5417421182,0.7062378162,1.822856616,2.028561712
19.15214383,0.5450112965,0.6397157979,2.127835105,2.287784048
19.16220383,0.5368661251,0.5563748485,2.427151735,2.547320898
19.17226483,0.5311612526,0.4821299739,2.636891946,2.732724048
19.18232483,0.376223194,0.4460872981,2.756124274,2.81722537
19.19238583,0.1716240386,0.4942037433,2.692741041,2.743090678
19.20244583,0.1138675904,0.6913331173,2.38854374,2.489186314
19.21250633,0.09109092213,0.980731262,1.968398491,2.201073371
19.22256733,0.006540916984,1.214635676,1.511776557,1.939291357
19.23262733,-0.1881288646,1.359487872,1.31962828,1.903948145
19.24268833,-0.2855726769,1.273939599,1.986206186,2.376865345
19.25274833,-0.2440542481,0.7833906573,2.731854236,2.852418441
