"Time (s)","Linear Acceleration x (m/s^2)","Linear Acceleration y (m/s^2)","Linear Acceleration z (m/s^2)","Absolute acceleration (m/s^2)"
"0.0073614164721221","-9.2149300324917","-0.79641796141863","3.338894623518","9.8334853627768"
"0.017350666690618","-9.7579211890697","-0.9278155682981","3.1437929177284","10.29375060755"
"0.027338666608557","-10.33214700222","-0.8258586191386","2.9092049646378","10.765629459561"
"0.037327666534111","-10.8008294034","-0.64886288970709","2.7553132653236","11.165602986004"
"0.047316666692495","-10.965449573994","-0.62211217045784","2.6322106647491","11.29409761318"
"0.057305666618049","-10.855985019207","-0.6333265453577","2.3520075590909","11.125891101764"
"0.067294666543603","-10.534317991734","-0.64640413552523","2.0075187027454","10.743361913259"
"0.077282666694373","-9.8711057424545","-0.4891594600305","1.5655228476226","10.006441292612"
"0.087271666619927","-9.7372775942087","-0.36704222492874","1.3438832612336","9.8364280692426"
"0.09726066654548","-9.9619562709332","-0.36672742545605","1.3337042820454","10.057525981101"
"0.10724966647103","-10.169886767864","-0.44375433214009","1.426956846714","10.279091429735"
"0.1172376666218","-10.355128898621","-0.56127320721745","1.5316851568222","10.482832705897"
"0.12722666654736","-10.455607452393","-0.62057588763535","1.5969704890251","10.595053391732"
"0.13721566647291","-10.393032889366","-0.62291418917477","1.6226397657394","10.537367533491"
"0.1472046666313","-10.36464348793","-0.6570732575655","1.6496270048618","10.515647823737"
"0.15719366655685","-10.404265390635","-0.70336442135274","1.6080743515491","10.551273048694"
"0.16718166647479","-10.473964201212","-0.73353064544499","1.5165233266354","10.608573716401"
"0.17717066663317","-10.447917194366","-0.76784671157598","1.2213815351576","10.547053386005"
"0.18715966655873","-10.38342240572","-0.91612040609121","0.39291410766542","10.43116095888"
"0.19714866648428","-10.486469056606","-0.99520831011236","0.54780458450317","10.547822652969"
"0.20713766664267","-10.56061175108","-0.8578545100987","1.2926439642906","10.673957248179"
"0.21712566656061","-10.606091394424","-0.87861249111593","1.6832753920555","10.774718122621"
"0.22711466648616","-10.200755388737","-1.0614978285134","1.6805809950829","10.392619526463"
"0.23710366664454","-9.1558906960487","-0.95375162422657","1.4682487142086","9.3217879661298"
"0.2470926665701","-8.8297388541698","-0.81910647377372","1.6259668314457","9.0154862201201"
"0.25708166649565","-4.9323450887203","-0.89578495949507","-0.56560942925513","5.0448362504985"
"0.26706966664642","28.265938646793","-0.079239346906543","-14.524854394197","31.779568304667"
"0.27705866657197","68.879886975288","-4.0631655451655","-40.283779449463","79.898254240683"
"0.28704766649753","53.87301735878","0.12194444987923","-31.525349729061","62.419264216489"
"0.29703666665591","31.765532298088","5.4009070372581","1.3721684360504","32.250607517113"
"0.30702566658147","14.863872449398","2.1571148912609","11.947625098228","19.19201902703"
"0.31701366649941","-5.1195665019751","-0.88282964922488","13.952795559168","14.888581304934"
"0.32700266665779","32.267384784222","7.0570478403568","7.7065507078171","33.917207562626"
"0.33699166658334","30.830588243008","8.4262558311224","8.0601686757803","32.961997479271"
"0.3469806665089","15.583996818066","3.1079106017947","-3.6313150477409","16.300506559926"
"0.35696966666728","9.1304547232389","2.2667022375762","-0.66113005578518","9.4308130846503"
"0.36695766658522","5.3054196667671","2.1042028521001","2.2893930888176","6.1495095900756"
"0.37694666651078","3.2238553333282","2.3124591851234","4.8659160411358","6.2783636094506"
"0.38693566666916","1.3100306600332","1.5954361796379","-0.31915272474289","2.0888885550061"
"0.39692466659471","-3.3505791145563","-1.2060741823912","0.48744260787964","3.5942447930418"
"0.40691366652027","-3.2628895908594","-1.6551703114808","3.6356946122646","5.1579368506987"
"0.41690166667104","-4.0661256980896","-1.4984697559476","3.1006977689266","5.328519161679"
"0.42689066659659","-5.8965597206354","-1.1404095120728","3.2539228856564","6.8306635504938"
"0.43687966652215","-6.9423295623064","-0.78697989754379","3.2442457437515","7.7032725225492"
"0.44686866668053","-7.8142160743475","-0.65708056658506","3.1914640974998","8.4663552260229"
"0.45685666659847","-8.651778845787","-0.45238906167448","2.9001230692863","9.1361177135881"
"0.46684566652402","-9.4214092504978","-0.15823797125369","2.562308371067","9.7649073579503"
"0.47683466668241","-10.075215668678","0.0082576572149992","2.5222444188595","10.386132863956"
"0.48682366660796","-10.43696185112","-0.1361736857146","2.6778049135208","10.775869111552"
"0.49681266653351","-10.797525726557","-0.4588006798178","2.7830314064026","11.159853210884"
"0.50680066668428","-10.886381185055","-0.80018524937332","2.5798301374912","11.216466256265"
"0.51678966660984","-10.775447809696","-1.033447784856","2.2481481452286","11.055878974844"
"0.52677866653539","-10.635642052889","-1.0535532896966","1.9914773051441","10.871652968538"
"0.53676766669378","-10.366536816359","-0.7510871297121","1.6604139482975","10.525501979528"
"0.54675666661933","-10.16628020525","-0.63077869422734","1.5600989703834","10.304612742366"
"0.55674566654488","-10.181438527107","-0.65925426900387","1.6451129543781","10.334539336861"
"0.56673366669565","-10.199019935131","-0.72336189888418","1.724727473259","10.369086021968"
"0.57672266662121","-10.272463302612","-0.7976955049485","1.8212556481361","10.463115814995"
"0.58671166654676","-10.282210611105","-0.92783099032938","1.6533972895145","10.455546279115"
"0.59670066647232","-10.139021655321","-1.0849610969424","0.97713303163648","10.24361702088"
"0.6066896666307","-10.298053057194","-1.1191916475445","1.2598855233192","10.435027467361"
"0.61667766654864","-10.399172465801","-1.0969486199319","1.5238908183575","10.567323571961"
"0.62666666647419","-10.228127374649","-0.99599322572351","1.3720503222942","10.367695702741"
"0.63665566663258","-9.7970215201378","-0.92675597973168","0.83267742276192","9.8759231974732"
"0.64664466655813","-9.6503166335821","-1.0713310910761","0.29493465386331","9.7140798784624"
"0.65663366648369","-9.4276458907127","-1.2079111582786","-0.16542357802391","9.5061517643646"
"0.66662166663446","-9.2249878281355","-1.3307575777173","-0.11296944893897","9.321162924029"
"0.67661066656001","-8.2073910409212","-1.3960493418574","-0.66248843707144","8.3515934044198"
"0.68659966648556","-3.7461046618223","-2.2008162501454","-3.8183417487144","5.7841702960932"
"0.69658866664395","14.053278790712","-3.8540737912059","-11.77228932023","18.73326787821"
"0.7065776665695","47.612436304092","-5.2138522696495","-31.272034313679","57.201997136611"
"0.71656566648744","49.922825574875","-0.73077733777463","-33.831589815617","60.310853238442"
"0.72655466664582","28.003080575466","3.8135619422793","-8.4508369410038","29.498007075175"
"0.73654366657138","14.295469293594","1.9202808764577","17.450559031963","22.640007321037"
"0.74653266649693","5.8532920789719","-2.5109715718031","6.1681342363358","8.8663344372754"
"0.75652166665532","20.684972097874","0.26805931583047","16.931887614727","26.732540932062"
"0.76650966657326","32.014424879551","6.2693571406603","12.950191032887","35.098941395914"
"0.77649866649881","14.620624769926","5.9879136943817","-2.3244681966305","15.969374799017"
"0.78648766665719","9.8169149172306","4.0508337673545","-1.5931195127964","10.738673218091"
"0.79647666658275","7.6062224274874","2.696955421865","0.73750463247299","8.103832503628"
"0.8064656665083","9.7320648014545","4.5465840992332","-2.0001360082626","10.926346888263"
"0.81645366665907","0.55650290250778","0.041294023655355","0.44255590874702","0.71221935473289"
"0.82644266658463","-2.6792158466578","-0.054257958568633","5.3172111618519","5.9543157473191"
"0.83643166651018","-3.0270842474699","0.88470916360617","3.915402020216","5.0275562975824"
"0.84642066666856","-3.0808353620768","0.39712187368423","4.0391922533512","5.09552022568"
"0.85640966659412","-3.2481206935644","-0.059293507598341","3.2122965574265","4.568659861804"
"0.86639766651206","-4.8670264273882","-0.14355100806803","2.7297550857067","5.5821246819427"
"0.87638666667044","-6.8083119642735","-0.25852970648557","2.3424273347855","7.2046453924364"
"0.886375666596","-8.0140809220076","-0.43305805709213","2.0703201377392","8.2885015399665"
"0.89636466652155","-8.9847432786226","-0.4750029854849","2.0551898825169","9.2290327267907"
"0.90635366667993","-9.6334298747778","-0.33243346910924","2.1335051500797","9.8724529570448"
"0.91634166659787","-10.09824668169","-0.23410424217582","2.1550123786926","10.328284910516"
"0.92633066652343","-10.438652865887","-0.28512565724552","2.106260779649","10.652844914237"
"0.93631966668181","-10.534600996971","-0.39948506243527","2.1921669025719","10.767683233139"
"0.94630866660737","-10.643264483213","-0.56122266534716","2.1542567722499","10.87358597614"
"0.95629766653292","-10.707082164288","-0.70426335766912","1.9832492494583","10.911960086769"
"0.96628566668369","-10.640474191904","-0.63480325967073","1.7596587395668","10.803659800586"
"0.97627466660924","-10.428359427452","-0.42569082118571","1.702430870533","10.574978198196"
"0.9862636665348","-10.244624708891","-0.42693788610399","1.7359892106056","10.399436038745"
"0.99625266669318","-10.196313843727","-0.59942490063608","1.7697978115082","10.366113568011"
"1.0062416666187","-10.224503270388","-0.77443915486336","1.8228683102131","10.414560576766"
"1.0162296665367","-10.288938417435","-0.89196270771325","1.695518438369","10.46578396512"
"1.0262186666951","-10.320709848404","-0.92695997446775","1.4008735871315","10.456517268017"
"1.0362076666206","-10.022855021954","-0.85085320025682","1.0992308612913","10.118788585888"
"1.0461966665462","-9.5692426496744","-0.7506328741461","0.77286976218224","9.6297031246759"
"1.0561856664717","-9.6196351236105","-0.77723887480795","0.52559919834137","9.6652850292793"
"1.0661746666301","-9.4223641008139","-0.716261478737","0.25733716685325","9.453052320371"
"1.076162666548","-9.3024961799383","-0.82252614475787","-0.057093419618905","9.3389637591727"
"1.0861516664736","-9.1709420138597","-0.95713504247367","-0.30784190732986","9.2258902850087"
"1.096140666632","-9.0991037070751","-1.0077982424945","-0.70001579403877","9.1814687104835"
"1.1061296665575","-7.8383036792278","-1.3804315750301","-2.2911928617954","8.282159176874"
"1.1161186664831","-0.49818160414696","-1.9266610658169","-6.9738618421555","7.2522380522648"
"1.1261066666339","23.516500310898","-2.9336676684022","-19.887365105152","30.937670948"
"1.1360956665594","45.367208404541","-3.3944355708361","-34.938743727207","57.362196649894"
"1.146084666485","37.089118094444","3.6797071892023","-25.672389771938","45.257204096411"
"1.1560736666434","18.10830530405","7.5272493481636","-6.713949598074","20.727935809907"
"1.1660626665689","4.6173181593418","0.026275596432388","4.3104644680023","6.3166780289537"
"1.1760506664868","8.7770963716507","-7.6981681394577","-1.8430949985981","11.819315233738"
"1.1860396666452","38.454017271996","-3.7360193842649","20.612578890324","43.78981267035"
"1.1960286665708","32.751929512024","5.7959671461582","23.749911804199","40.869798539107"
"1.2060176664963","11.999926103354","8.2386163419485","2.6398646700382","14.793306296832"
"1.2160066666547","5.8988839888573","8.2644692212343","2.729891910553","10.514304240701"
"1.2259946665727","5.7331961166859","4.4921251791716","-0.36132518291473","7.2924126477824"
"1.2359836664982","8.0866618251801","3.1811358681321","-5.9539109659195","10.533887253832"
"1.2459726666566","1.8663967376947","1.0839683128148","3.1076138556004","3.7836077969556"
"1.2559616665822","-2.0561388856173","0.17805458709598","4.0954389595985","4.5860692128151"
"1.2659506665077","-3.1351074635983","0.84955526456237","4.6455988025665","5.6685298967424"
"1.2759386666585","-3.2866637849808","0.62868619501591","4.2223668086529","5.3875585040091"
"1.285927666584","-3.7172299414873","0.048078474886715","3.0998885142803","4.8403944858456"
"1.2959166665096","-5.4851788634062","-0.23789930440485","3.1822243273258","6.3458911834366"
"1.305905666668","-7.5021747332811","-0.20685990829021","3.0409509193897","8.0977033314686"
"1.3158946665935","-8.6848319864273","-0.43844001710415","2.9861870670319","9.1943379033173"
"1.3258826665115","-9.2328681206703","-0.69471617013216","2.954965274334","9.7190690944788"
"1.3358716666698","-9.4378697472811","-0.84349243283272","2.5595730435848","9.815104636036"
"1.3458606665954","-9.6731652134657","-1.0644918952882","2.3398582144082","10.008906269202"
"1.355849666521","-9.7758294564486","-1.2367860978842","2.241582891494","10.105502227644"
"1.3658386666793","-9.6658257883787","-0.96412838548422","2.185341886282","9.9565782714205"
"1.3758266665973","-9.4224161410332","-0.54662856325507","2.0256077952683","9.6531764544745"
"1.3858156665228","-9.2613931775093","-0.29235252343118","2.0791250212491","9.4964011309736"
"1.3958046666812","-9.3108308011293","-0.3064969380945","2.1352675008774","9.5574514322922"
"1.4057936666068","-9.3725253582001","-0.47953103274107","2.0344461540878","9.6027679736286"
"1.4157826665323","-9.4697522753477","-0.611772319749","1.979374884367","9.6937298528754"
"1.4257706666831","-9.7124883234501","-0.68977286092937","1.9363276827335","9.9276170820469"
"1.4357596666086","-9.9180951368809","-0.69970326036215","1.9171358053386","10.125887886644"
"1.4457486665342","-10.076463464499","-0.82011504538357","1.7207466888428","10.255177902221"
"1.4557376666926","-10.239860397577","-0.93915916666389","1.4474934375286","10.384218706956"
"1.4657266666181","-10.316282336712","-0.99665198765695","1.2662157189846","10.441374367499"
"1.4757146665361","-10.120087201595","-1.0212083930522","1.0034628975391","10.220859520445"
"1.4857036666945","-9.8144158172607","-1.0192347384989","0.67525882914662","9.8902766277087"
"1.49569266662","-9.6489413684607","-1.1026840806752","0.52529170788825","9.7259402163566"
"1.5056816665456","-9.1310499697924","-1.2264854966104","0.29255849160254","9.2176966046431"
"1.5156706664711","-8.2637342262268","-1.3601711189747","-0.26820133008063","8.3792183876578"
"1.5256586666219","-6.3424578613043","-1.8115711972117","-1.5928002548218","6.7856889537281"
"1.5356476665474","0.78858590841293","-2.8524404874444","-4.8998427557945","5.7242242706651"
"1.545636666473","23.876585884094","-4.3480977326632","-15.415278918743","28.751141395012"
"1.5556256666314","41.109846010208","-2.8751630598307","-27.770359053612","49.693851164607"
"1.5656146665569","31.083501369953","0.91513449244201","-20.015421466827","36.981598465316"
"1.5756026664749","15.532466475964","5.1368502867222","-9.445392190218","18.890743217835"
"1.5855916666333","2.5251727044582","-3.7798945516348","-15.460274412632","16.11471951114"
"1.5955806665588","19.585186847448","-6.006355227828","-2.7211479842663","20.665442006514"
"1.6055696664844","48.44277367115","-0.81272540733218","23.120912783146","53.683698191051"
"1.6155586666428","30.654282996655","11.851588089466","24.102253324986","40.756150721371"
"1.6255466665607","5.8838309168816","9.7559033149481","2.9729173958302","11.774351514691"
"1.6355356664862","3.2210480850935","8.1387534999847","3.5317007124424","9.4386105557049"
"1.6455246666446","4.3082553899288","4.2118847975135","2.8487915325165","6.6645818509576"
"1.6555136665702","10.714711611271","3.5116579189897","-0.45758095063269","11.284775876334"
"1.6655026664957","1.6525003266335","0.059915724433959","-2.5108248066902","3.0064245264848"
"1.6754906666465","-3.5431033676863","-0.72041270948946","4.0466895532608","5.4266262342798"
"1.6854796665721","-3.3627576953173","-0.099861233979464","3.6289925336838","4.9485046623197"
"1.6954686664976","-4.2797320872545","-0.045823130719364","4.3043377554417","6.0700518952399"
"1.705457666656","-4.8490854156017","0.044211528450251","3.2420425128937","5.8332172668656"
"1.7154466665816","-6.1799029272795","-0.11521196577698","3.0971976256371","6.9135451918612"
"1.7254346664995","-7.7324375009537","-0.10194496236742","3.0888045322895","8.3271661398221"
"1.7354236666579","-8.7691687166691","-0.12773374155164","2.9019088089466","9.2377329808552"
"1.7454126665834","-9.3779527437687","-0.31207540109754","2.7556103038788","9.7794057522516"
"1.755401666509","-9.6121460098028","-0.5595007699728","2.3826726968586","9.9188467679325"
"1.7653906666674","-9.6468129819632","-0.86579254388809","2.1619084386528","9.9239329670823"
"1.7753786665853","-9.5818469077349","-1.1223884665221","2.325037715435","9.9235752836992"
"1.7853676665109","-9.3177936655283","-1.0662323921174","2.3102746653557","9.6589595369659"
"1.7953566666692","-9.1193689870834","-0.84864923849702","2.0509635150433","9.3856032087778"
"1.8053456665948","-9.109704709053","-0.69269288733602","1.7509194910526","9.3022718938148"
"1.8153346665204","-9.1758852499723","-0.66666766136885","1.7034085249901","9.3564371688364"
"1.8253226666711","-9.2962408286333","-0.78176915131509","1.701633310318","9.4829748746203"
"1.8353116665967","-9.4311559742689","-0.84964275352657","1.6482532015443","9.6117290034629"
"1.8453006665222","-9.5533586883545","-0.90165943779051","1.5753322827816","9.7242646905197"
"1.8552896666806","-9.8154285550117","-0.99310674771667","1.4087299060822","9.9656118065672"
"1.8652786666062","-10.031165084839","-1.0158378716558","1.2401616954803","10.158454635018"
"1.8752666665241","-10.158264842033","-1.0675862418115","0.98668716274202","10.261756016478"
"1.8852556666825","-10.004074934721","-1.1342397493869","0.68641641296446","10.091540150076"
"1.8952446666081","-9.6526853406429","-1.2070645545423","0.37467554569244","9.7350768301455"
"1.9052336665336","-9.5104494810104","-1.2923713378608","0.011135510578752","9.5978641897753"
"1.915222666692","-9.359588393569","-1.3983934906125","-0.33916186016053","9.4695527887544"
"1.9252106666099","-8.7678332126141","-1.6296751356125","-0.77720254898071","8.9518033989802"
"1.9351996665355","-7.474553655982","-1.877554102242","-1.6643760216236","7.8844346217313"
"1.9451886666939","-5.2359360337257","-2.437014234066","-3.7586136102676","6.8906633060684"
"1.9551776666194","1.7997618681192","-3.5794835740328","-8.8066446912289","9.6751659498045"
"1.965166666545","23.093461275101","-4.5574467641115","-22.251661026478","32.391583677084"
"1.9751546666957","41.332138438225","-4.0933599820733","-32.444721479416","52.704470547538"
"1.9851436666213","27.545047123432","1.7847409558296","-15.106707315445","31.466291920499"
"1.9951326665469","12.473613721132","1.3901611956954","-3.3071723091602","12.979251754108"
"2.0051216664724","8.8344172114134","-4.6970809051394","-8.9255466520786","13.408015495709"
"2.0151109166909","29.939933338165","-3.4877153250575","10.354443604946","31.871276548805"
"2.0250989166088","41.563529133797","10.347066757679","29.37567234993","51.937644060491"
"2.0350879165344","17.38168350935","14.88044813633","8.9205472826958","24.558640479066"
"2.0450769166928","5.6664577513933","10.331591516733","2.9022222197056","12.135626087249"
"2.0550659166183","4.6161060315371","6.3642866867781","1.9579401612282","8.1022286811003"
"2.0650549165439","5.8406743723154","2.5510615441203","1.7215863490105","6.6019127290817"
"2.0750429166947","9.1107045829296","2.2845381456614","-4.4838063454628","10.408101261998"
"2.0850319166202","-1.4206278204918","-0.73053957536817","2.8101005065441","3.232419578646"
"2.0950209165458","-3.015309124589","-0.77393929101527","4.6155756890774","5.567280313098"
"2.1050099164713","-3.3967662709951","-0.22482588037848","4.1524224150181","5.3694673561726"
"2.1149989166297","-4.4482061576843","0.26030137628317","4.4601029026508","6.3045073344386"
"2.1249869165476","-5.1721651303768","-0.34544202558696","3.6928452980518","6.3645682276389"
"2.1349759164732","-6.6470223677158","-0.44680387437344","3.5322737395763","7.5405237106165"
"2.1449649166316","-8.6550509476662","-0.34383184857666","3.6421429216862","9.3964531770653"
"2.1549539165571","-9.6502587461472","-0.47888031072915","3.3470959281921","10.225452135339"
"2.1649429164827","-9.8878767263889","-0.75763761922717","2.955368732214","10.347865734618"
"2.1749309166335","-10.022565000057","-1.2552821566164","2.4249502587318","10.387873999545"
"2.184919916559","-10.174908356667","-1.8387009622157","2.2994701802731","10.592315346749"
"2.1949089164846","-10.102390018702","-1.8653592954576","2.4474877667427","10.560683962673"
"2.2048979166429","-9.8573951911926","-1.626819063127","2.0162801706791","10.192161985868"
"2.2148869165685","-9.4914588940144","-1.2681473466754","1.7302542614937","9.7308668390365"
"2.2248749164864","-9.2484421795607","-0.98840558633208","1.7212893104553","9.4590414547171"
"2.2348639166448","-9.2096593523026","-0.85198507502675","1.6967789518833","9.4033378523308"
"2.2448529165704","-9.341723395586","-0.86614228047431","1.7468673706055","9.5430364172076"
"2.2548419164959","-9.6040142869949","-0.99004185654223","1.7263740491867","9.8080395931202"
"2.2648309166543","-9.7113405150175","-1.0326679124683","1.556077401638","9.8892828099893"
"2.2748189165723","-9.8836176145077","-1.0175573185086","1.2778072392941","10.017689922684"
"2.2848079164978","-9.9187628889084","-0.97683672398329","0.85323615990579","10.003203445711"
"2.2947969166562","-9.8221949529648","-1.0740417140722","0.52549160957336","9.8947067025428"
"2.3047859165817","-9.6614409613609","-1.4079615819454","0.19427611548454","9.7654257702952"
"2.3147749165073","-9.4177336907387","-1.7258159324527","-0.23194497507066","9.5773663902893"
"2.3247629166581","-9.1319106799364","-1.9658588992059","-0.6914262342453","9.3666677167137"
"2.3347519165836","-8.6110985970497","-2.332733528316","-1.0622671759129","8.9844908767978"
"2.3447409165092","-7.5916014647484","-2.7440860265493","-1.8771363186836","8.2877054532358"
"2.3547299166676","-5.1228193080425","-3.2460618889332","-4.1562921023369","7.3522077969536"
"2.3647189165931","0.99780513167381","-4.232714626193","-7.9943728816509","9.1006310747365"
"2.3747069165111","19.35229575634","-5.1768522584438","-15.987976269722","25.630578135263"
"2.3846959166694","34.422352724075","-4.8987797319889","-24.76426104784","42.686825077168"
"2.394684916595","27.947309832573","-2.0454112914205","-17.68678186655","33.136959531976"
"2.4046739165206","16.292073583603","-0.92321205541492","-6.1460469639301","17.43725538712"
"2.4146629166789","10.912314755917","-5.6066296255589","-8.5416231501102","14.948987762684"
"2.4246509165969","21.547733445168","-5.9826669877768","1.4947763621807","22.412752559281"
"2.4346399165224","39.2172052145","4.119321911931","11.324865056276","41.026949269879"
"2.4446289166808","29.656864950657","18.468118396997","22.418697266579","41.51143243683"
"2.4546179166064","10.313485028744","16.233455246687","7.076120288372","20.493035915155"
"2.4646069165319","6.1895473247767","10.646199785471","3.1460978901386","12.710232015669"
"2.4745949166827","5.1210844391584","3.4701710468531","1.5924177007377","6.3877528960528"
"2.4845839166082","9.9565663075447","2.5086373633146","-1.0379369115829","10.320067203734"
"2.4945729165338","1.0322113180161","0.64755844898522","1.494124982357","1.9280045676284"
"2.5045619166922","-1.9909634810686","-0.84719869047403","4.9123160362244","5.3677304369572"
"2.5145509166177","-3.251979855895","0.658427618891","4.5232235956192","5.6096748219867"
"2.5245389165357","-4.7002685147524","0.57088464103639","3.9323636233807","6.154828758839"
"2.5345279166941","-4.9955856496096","-0.19451910383999","3.2671270680428","5.972255264394"
"2.5445169166196","-6.058624073267","-0.42528919056058","4.011543109417","7.2787550223571"
"2.5545059165452","-7.8060048294067","-0.3848553288728","3.9289663910866","8.7474911787993"
"2.5644939166959","-9.0185957336426","-0.68375717237592","3.4028596544266","9.6634386584371"
"2.5744829166215","-9.5384757703543","-0.86246635526419","2.8871492671967","10.003099475996"
"2.584471916547","-9.8516766142845","-1.0267025099695","2.6617776954174","10.25644727263"
"2.5944609164726","-10.191093449593","-1.4366354504228","2.5823116958141","10.610873706254"
"2.604449916631","-10.297343205214","-1.7844746151567","2.4633196878433","10.737204972553"
"2.6144389165565","-9.9224057042599","-1.6942091006041","2.0257351183891","10.267817791837"
"2.6244269164745","-9.0841933071613","-1.2676934565604","1.7055041670799","9.3294350957391"
"2.6344159166329","-8.7957905048132","-1.0317229293287","1.7277868826687","9.0230610282424"
"2.6444049165584","-8.7909870171547","-0.99969400160015","1.8234930852056","9.0336021533168"
"2.654393916484","-9.0829998904467","-0.98008624099195","1.7791825926304","9.3073598161646"
"2.6643819166347","-9.3218066096306","-1.0171657743305","1.7315581905842","9.5356697954156"
"2.6743709165603","-9.5946657586098","-1.0925974874943","1.6573067378998","9.7978592515205"
"2.6843599164858","-9.7574247604609","-1.153910221383","1.5403741192818","9.9454310707188"
"2.6943489166442","-9.7400228619576","-1.1502312263846","1.4279590594769","9.9111121626762"
"2.7043379165698","-9.7048062515259","-1.1250015871972","1.2647960150242","9.8513248809728"
"2.7143259164877","-9.755907407999","-1.2372410112619","1.0766186551005","9.8928055879972"
"2.7243149166461","-9.733086310029","-1.4185824644566","0.87597261942923","9.8748505485869"
"2.7343039165717","-9.5908715003729","-1.5581946784258","0.57561986245215","9.7336593847632"
"2.7442929164972","-9.4203503197432","-1.7249189695716","0.37498193979263","9.5843078546885"
"2.7542819166556","-9.0517482769489","-1.8717336376011","0.02184051990509","9.2432683985528"
"2.7642699165735","-8.192808085084","-2.0959711419046","-0.55677772164345","8.4749749721184"
"2.7742589164991","-6.6945561379194","-2.7053347742558","-1.9661344492435","7.4834218641644"
"2.7842479166575","-2.8004771590233","-3.9581837582588","-5.3210013270378","7.1988156042986"
"2.794236916583","12.662092870474","-5.7308806192875","-13.066283991337","19.076146515355"
"2.8042259165086","39.20192994833","-5.0493320864439","-26.097512755394","47.364197852502"
"2.814214916667","32.380713179111","-4.8548703584075","-24.148198406696","40.684343898778"
"2.8242029165849","19.543406152725","-1.9444804555178","-7.5230452001095","21.03145114763"
"2.8341919165105","11.267890956402","-2.9276693022251","-12.147002288103","16.825168015082"
"2.8441809166688","26.016035313606","-2.0958078584075","2.8619898676872","26.256760844036"
"2.8541699165944","42.671291155815","7.0640352630615","17.521651818752","46.666347248951"
"2.8641579165123","26.106154940128","18.215091834068","26.26036706686","41.266545466852"
"2.8741469166707","5.9031436854601","14.800058276653","5.8307960861921","16.967233521181"
"2.8841359165963","4.6442644679546","11.337332489491","2.8073137235641","12.569220770122"
"2.8941249165218","5.9902338695526","1.5303500913084","0.8191083741188","6.2366506830553"
"2.9041139166802","11.864675327539","1.2285241283476","-2.9875471293926","12.296553582699"
"2.9141019165982","-2.1494592779875","0.45581721112132","0.55276653170586","2.2657218179324"
"2.9240909165237","-2.6881644254923","0.033311660662293","3.9551198172569","4.7822913351318"
"2.9340799166821","-2.7773701322079","-0.18415378119797","3.2686566996574","4.293228864925"
"2.9440689166076","-3.743906108737","0.13932559076697","3.0324174928665","4.8199378027443"
"2.9540579165332","-4.3637980914116","-0.29682991918176","2.6744872033596","5.1267654114913"
"2.9640469166916","-6.2211480170488","-0.043641205653548","3.2896692538261","7.0375074425844"
"2.9740349166095","-7.7994495159388","-0.081243480071425","3.3073886561394","8.4721209255706"
"2.9840239165351","-8.8061716514826","-0.39614951826632","2.937059930563","9.2914968994192"
"2.9940129166935","-9.2411863696575","-0.53778260305524","2.4348928642273","9.5716998964216"
"3.004001916619","-9.4857034796476","-0.70058341249824","2.0799505019188","9.7363022607199"
"3.013989916537","-9.4742137008905","-0.88904063478112","2.1271046416461","9.7506765230391"
"3.0239790831693","-9.2916519337893","-0.94885421566665","2.2618714141846","9.6099522514726"
"3.0339680833276","-8.9445214515924","-0.90201407141984","2.3201155292988","9.2844509505048"
"3.0439570832532","-8.8238214719296","-0.68692504763603","1.7594447314739","9.0237097223185"
"3.0539460831787","-9.1192327469587","-0.6110235837847","1.5033248452842","9.2624910960062"
"3.0639350833371","-9.2090874946117","-0.64991407290101","1.4507877588272","9.3452911087206"
"3.0739230832551","-9.284973244071","-0.75733378328383","1.3807416236401","9.4175755921399"
"3.0839120831806","-9.3604385787249","-0.85836285240948","1.3180290663242","9.4916699158869"
"3.093901083339","-9.451768578887","-0.9054485797137","1.2246736637503","9.5736927035509"
"3.1038900832646","-9.6183785569668","-0.98245736002922","1.1342184070498","9.7347254673301"
"3.1138780831825","-9.8884193480015","-1.0382427940518","1.0055982276052","9.9934985413865"
"3.1238670833409","-10.058827092648","-1.0768127826601","0.76149232305586","10.14491985216"
"3.1338560832664","-9.9508828139305","-1.0510400102288","0.68594739317894","10.0297197222"
"3.143845083192","-9.8733089733124","-1.0656977373362","0.67567617416382","9.9536164303326"
"3.1538340833504","-9.7970799922943","-1.1218685759604","0.54200648546219","9.875987875014"
"3.1638230832759","-9.6396536511183","-1.2257201691717","0.39155528783798","9.7251543941506"
"3.1738110831939","-9.237278675437","-1.4632472983003","0.15981960654259","9.353820197668"
"3.1838000833523","-8.2951460534334","-1.701855212152","-0.43278868317604","8.4789778425944"
"3.1937890832778","-7.0351125955582","-2.221030074656","-1.7095188653469","7.5728619804988"
"3.2037780832034","-3.7773094975948","-3.2002577251196","-5.0198591959476","7.0504399079028"
"3.2137670833617","9.4163905853033","-4.2176557070017","-11.098403563499","15.153600000531"
"3.2237550832797","37.4711541152","-5.0226424705982","-24.453717763424","45.025533206901"
"3.2337440832052","38.626751039028","-4.0343419879675","-29.45021733284","48.740302748941"
"3.2437330831308","19.269576365948","-0.6230500638485","-14.160198637247","23.921036560974"
"3.2537220832892","15.377715235949","-2.222757049799","-6.148689905405","16.709912098308"
"3.2637110832147","15.590598324537","-5.7745908951759","-12.18832105279","20.614747784283"
"3.2736990831327","40.414981613159","0.028619489371777","8.7227324688435","41.345587667733"
"3.2836880832911","33.276616544724","12.273575795889","17.162084308863","39.401916315155"
"3.2936770832166","14.24662399292","18.618472530842","20.58924849987","31.201457792333"
"3.3036660831422","0.66127799034119","12.616966398954","7.6142605948448","14.75134211179"
"3.3136550833005","0.48049260735512","2.9732623815537","3.9503496587276","4.9675370921106"
"3.3236430832185","5.1272497433424","0.41169700887054","2.888093007803","5.8990902332002"
"3.333632083144","5.1441932201385","4.1072696310282","1.3688472175598","6.7235504321085"
"3.3436210833024","-3.6641255289316","-0.87997898541391","1.5422463977337","4.0716953296951"
"3.353610083228","-3.872117421627","-1.119493290782","4.1720363152027","5.8010727947806"
"3.3635990831535","-4.7582009732723","0.2048023827374","2.5606313896179","5.4073333198094"
"3.3735870833043","-5.4567076009512","-0.35774288624525","3.3351711165905","6.4052325634498"
"3.3835760832299","-6.535598410964","-0.50561114944518","4.4042514681816","7.8972856234797"
"3.3935650831554","-7.4927028286457","-0.15840077966452","4.7531010317802","8.8745510254719"
"3.4035540833138","-8.5840815371275","-0.25187926612794","4.3038524365425","9.6058859454134"
"3.4135430832393","-9.3376016932726","-0.40333793900907","3.3508241128922","9.9288221411601"
"3.4235310831573","-9.7184337723255","-0.5913015101105","2.7349181771278","10.113227471906"
"3.4335200833157","-10.044089770317","-1.0080928690732","2.6548522531986","10.437826930601"
"3.4435090832412","-10.287284824848","-1.4970439124107","2.8381729888916","10.776112260835"
"3.4534980831668","-10.100365712643","-1.519389924109","2.7747844934464","10.584203430381"
"3.4634860833175","-9.3778486633301","-1.2937371012568","2.3872171528637","9.7630224302937"
"3.4734750832431","-8.670871759057","-1.2207289128006","1.6211886329949","8.9051922339898"
"3.4834640831687","-8.8700542366505","-1.1820132554322","1.2913797962666","9.0411658139503"
"3.493453083327","-9.4183225053549","-1.0757371873409","1.4913791298866","9.5961565754298"
"3.5034420832526","-9.6772103172541","-1.1450467926264","1.7661549961567","9.903475912634"
"3.5134310831781","-9.7624539506435","-1.1854399430752","1.7322352981567","9.9855602809884"
"3.5234190833289","-9.8370211529732","-1.2452131050825","1.5782699239254","10.040342463974"
"3.5334080832545","-9.8197519862652","-1.342243848145","1.333243521452","10.000334289769"
"3.54339708318","-9.6268213516474","-1.301237617135","1.0532485035807","9.7712967963867"
"3.5533860833384","-9.5860937404633","-1.3865188188851","0.84519514203072","9.7226530568659"
"3.563375083264","-9.5128328061104","-1.4271027347445","0.74115439139307","9.6477935324304"
"3.5733630831819","-9.4583367562294","-1.5613874043524","0.44469361424446","9.596656565245"
"3.5833520833403","-9.2607610934973","-1.7635964007676","0.14616054732352","9.4283260020656"
"3.5933410832658","-8.7733810508251","-2.0702571339905","-0.26108877696097","9.018112164598"
"3.6033300831914","-7.7320398902893","-2.358816203177","-1.1632439855486","8.1671042184675"
"3.6133180833422","-5.5745243185759","-2.8608911758661","-3.0356381392479","6.9624075297988"
"3.6233070832677","1.5005317765474","-3.9604904848337","-7.2097759437561","8.3616953814434"
"3.6332960831933","24.773707809448","-6.1570935237408","-18.227306667566","31.366879150491"
"3.6432850833517","41.444676289558","-7.37778457582","-29.252941632271","51.262339901087"
"3.6532740832772","24.846662349701","-4.4759166973829","-17.055390164852","30.467635186822"
"3.6632630832028","14.381460785866","-2.3648543304205","-4.6766580426693","15.306537191265"
"3.6732510833535","19.886132512093","-2.4934729018807","-4.5895988488197","20.560644226143"
"3.6832400832791","28.034512867928","-1.7233446067572","0.98651357352734","28.104751153611"
"3.6932290832046","34.517122056484","6.5556344801188","21.106359879971","40.986418309996"
"3.703218083363","21.459103689194","16.549711260796","21.950936386585","34.874484687335"
"3.713206083281","6.6422025078535","13.7315673244","1.8336727952957","15.363500618676"
"3.7231950832065","4.2610905790329","7.2570150142908","1.3059241604805","8.5162549135927"
"3.7331840831321","6.5814645552635","0.60506052017212","3.0207230615616","7.2668109745549"
"3.7431730832905","7.9438108384609","4.4082079866529","-0.29148370027542","9.089630962716"
"3.753162083216","-3.9689110600948","1.0919741012156","0.24999770522118","4.1239739685508"
"3.7631510831416","-3.5338764613867","-0.89116975218058","4.8835793101788","6.0935878799235"
"3.7731390832923","-3.7125802356005","-0.3150876673311","2.7916677439213","4.65574280178"
"3.7831280832179","-4.3308735895157","-0.20833125047386","2.6848964166641","5.0998565397964"
"3.7931170831434","-5.610345531106","0.043730302602053","3.4023111855984","6.5615250301599"
"3.8031060833018","-7.3334720367193","-0.057914478331804","3.5554357302189","8.1501097803564"
"3.8130940832198","-8.5863186818361","-0.48715821392834","3.8164998757839","9.4089246427689"
"3.8230830831453","-9.2774730205536","-0.74954375714064","3.3833103659749","9.9035403025121"
"3.8330720833037","-9.6531870317459","-0.92572555415332","2.8616133069992","10.110876242457"
"3.8430610832293","-10.044886161089","-1.2219843830913","2.8735685241222","10.519048430565"
"3.8530500831548","-10.210588066578","-1.3110353578627","3.0848950839043","10.746697169531"
"3.8630380833056","-10.037180700302","-1.1993770008534","3.0092087244987","10.54698244752"
"3.8730270832311","-9.6334713900089","-1.0925586766005","2.8275497674942","10.099133288139"
"3.8830160831567","-9.172216706872","-1.0197005423158","2.4322873449326","9.5438655817305"
"3.8930050833151","-9.1004947596788","-1.0531820645928","1.873683976382","9.3508763747294"
"3.9029940832406","-9.5706465661526","-1.0619952072948","1.6549571804702","9.770567679706"
"3.9129820831586","-9.9522007763386","-1.0555892901868","1.9171207487583","10.18999121724"
"3.922971083317","-10.12903578043","-1.1098242618889","2.0029379940033","10.38464425685"
"3.9329600832425","-10.190944930315","-1.1535172154009","1.955282163173","10.440741778081"
"3.9429490831681","-10.196877515316","-1.1673595482856","2.0586409091949","10.467905319133"
"3.9529380833264","-10.223033280373","-1.1897918064147","1.8947142183781","10.464987145885"
"3.9629260832444","-10.254519367218","-1.2114487237483","1.5285931491852","10.438360622179"
"3.9729150831699","-10.277845079899","-1.2544540446997","1.0668900576979","10.408938890775"
"3.9829040833283","-10.309320641756","-1.3492055431008","0.61432024396956","10.415365430662"
"3.9928930832539","-10.469529672861","-1.4713708350062","0.032559708729386","10.572466308277"
"4.0028820831794","-10.715240199566","-1.6117066419125","-0.86858283519745","10.870529286818"
"4.0128700833302","-9.682914276123","-1.8720542111993","-2.2983615481853","10.126494045552"
"4.0228583333082","-8.1322081267834","-2.5212571164966","-5.0725776922703","9.9106301973651"
"4.0328473332338","-3.1573847705126","-3.4755773824453","-14.463843376637","15.206955052025"
"4.0428363331594","18.623000614643","-4.0064273804426","-27.436918072701","33.401378498137"
"4.0528253333177","59.01278072834","-0.99768526375294","-34.488571271896","68.359090204254"
"4.0628133332357","38.073772838116","0.89566267959774","-16.676430948973","41.575446347092"
"4.0728023331612","16.169262174368","-2.8050590372086","5.1410298764706","17.197196970915"
"4.0827913333196","19.110045611858","-3.1346934807301","10.64659154892","22.099096318967"
"4.0927803332452","24.923258535862","3.5516136977077","-0.89918248414993","25.191095749152"
"4.1027693331707","25.532697451115","7.2068622761965","26.37052393198","37.406711101691"
"4.1127573333215","18.185605494976","11.803989415169","13.128579057455","25.345808359572"
"4.1227463332471","10.090806684494","12.090574318171","2.1752940309048","15.8977442113"
"4.1327353331726","6.7890950900316","5.7620416009426","-5.102624194622","10.263026318978"
"4.142724333331","7.6879711800814","0.90497334726155","2.2639471757412","8.0653167600264"
"4.1527133332565","8.7240896075964","4.5974925899506","-3.0616161489487","10.325704384667"
"4.1627013331745","-5.7057603961229","0.036788195818663","-0.30047912992537","5.7137853282073"
"4.1726903333329","-3.7085900956392","-0.8271356510371","7.4992809462547","8.4069619122219"
"4.1826793332584","-4.0730675125122","-0.53640331797302","5.0304847562313","6.4948736988251"
"4.192668333184","-4.6728585219383","-0.42060915224254","4.1902351891994","6.2905158584815"
"4.2026573333424","-5.2240749567747","-0.68406583227217","3.6222085940838","6.3936922287468"
"4.2126453332603","-6.9886015033722","-0.34166172757745","3.5928906548023","7.8655036053894"
"4.2226343331859","-8.2416066080332","-0.3945716471225","3.6654078233242","9.0285647130413"
"4.2326233333442","-9.1144047009945","-0.5660019236058","3.3574408221245","9.7296012305286"
"4.2426123332698","-9.6370949095488","-0.60856139436364","3.0114610719681","10.114981119821"
"4.2526013331953","-9.9465932965279","-0.89709882885218","2.8162728273869","10.376458796407"
"4.2625893333461","-10.12075378418","-1.3382551699877","2.7493771719933","10.57258998041"
"4.2725783332717","-10.129673126936","-1.627075317353","2.8507620441914","10.648215624202"
"4.2825673331972","-9.9040419387817","-1.6367223460972","2.7461226117611","10.40721365987"
"4.2925563333556","-9.5487159991264","-1.6284866890311","2.5292072832584","10.011335355986"
"4.3025453332812","-9.2324336725473","-1.5969783827662","2.042343403548","9.5895431617478"
"4.3125333331991","-9.5432798427343","-1.4481891100109","1.9370059597492","9.8449699818332"
"4.3225223333575","-9.7602320086956","-1.344249150753","1.9695034687221","10.047292100669"
"4.332511333283","-9.8289192509651","-1.3994725942612","1.8272724330425","10.094805680578"
"4.3425003332086","-9.9734951663017","-1.5111307319999","1.8072927895188","10.247947557852"
"4.3524893331341","-10.08164526701","-1.6034370709956","1.7292568726838","10.353787281096"
"4.3624773332849","-10.170754494667","-1.6400516045094","1.3494368004799","10.390139360698"
"4.3724663332105","-10.144046752453","-1.618767593354","0.83029643654823","10.305895652964"
"4.382455333136","-9.8898717963696","-1.5943409961462","0.37450480699539","10.024556908466"
"4.3924443332944","-9.5724311363697","-1.6444469565153","0.13250148810446","9.7135575510563"
"4.40243333322","-9.4661217391491","-1.8958551563323","0.019817383289337","9.6541245218229"
"4.4124213331379","-8.9533150792122","-2.2698499399424","-0.70188916884363","9.2631915700176"
"4.4224103332963","-7.7105630671978","-2.6059733310342","-2.3338564860821","8.4670399735045"
"4.4323993332218","-4.4856716072559","-3.0449588933587","-5.8977660012245","8.0110341551878"
"4.4423883331474","3.9228706687689","-4.0039697957039","-13.2645139575","14.400278432639"
"4.4523773333058","22.668623635769","-4.6823953306675","-27.22519974947","35.735176296911"
"4.4623653332237","40.966079349518","-4.082068131566","-28.735240852833","50.205547545785"
"4.4723543331493","28.640915908813","-3.6726534006","-10.129877779484","30.600733176248"
"4.4823433333077","14.299623155594","-3.1296461641788","-0.68001488126814","14.653884390963"
"4.4923323332332","22.141356811523","1.5800502549112","-2.4772220277786","22.335462145166"
"4.5023213331588","28.550073566437","4.3921456852555","0.32980576694012","28.88782470546"
"4.5123093333095","31.314662854671","9.56498236835","29.554779582024","44.108751892913"
"4.5222983332351","12.805236217976","13.376937203407","16.9226653862","25.085715603015"
"4.5322873331606","5.3543111604452","11.203362253904","1.8612090879679","12.555798384181"
"4.542276333319","3.8088990801573","3.7872205281258","0.65031679987907","5.4105141596419"
"4.552264333237","6.7578200876713","2.2249442008138","5.4030459487438","8.9337234431286"
"4.5622533331625","4.8859883630276","3.7794182959199","-6.686850092411","9.1033427430561"
"4.5722423333209","-6.0564459854364","-1.6901213121414","3.0463911688328","6.9869555013472"
"4.5822313332465","-3.6453355014324","-1.4347696039081","8.2955793321133","9.1740760401082"
"4.592220333172","-4.951923905611","-0.26308845162392","3.9784443604946","6.357577009356"
"4.6022083333228","-5.478976137042","-0.069742006883025","4.1877653253078","6.8964789478147"
"4.6121973332483","-6.0358222711086","-0.30940461225808","4.40883451581","7.4809560545625"
"4.6221863331739","-7.4026504451036","-0.12220987692475","4.0593464362621","8.443486386322"
"4.6321753333323","-8.6363246548176","-0.43241329193115","3.4755662727356","9.3194766867365"
"4.6421643332578","-9.5025446301699","-0.60195608720183","2.8495645344257","9.9388492098002"
"4.6521523331758","-10.0266603899","-0.70345951169729","2.7146762859821","10.411447603319"
"4.6621413333341","-10.266627781391","-0.94114553891122","2.7283926844597","10.664592236352"
"4.6721303332597","-10.333836847544","-1.3049906525016","2.5771883654594","10.730008595795"
"4.6821193331853","-10.207460975647","-1.3573229402304","2.3834340043366","10.569547898868"
"4.6921083333436","-10.034108573198","-1.3345685005188","2.3684955377877","10.395873174189"
"4.7020963332616","-9.3827088689804","-1.1748637917638","2.3187589752674","9.7361272503303"
"4.7120853331871","-9.0118416148424","-1.2057541204244","2.1620338614285","9.345668660288"
"4.7220743333455","-9.5226122742891","-1.3801311743259","2.1660354034603","9.8628908517651"
"4.7320633332711","-9.9017065608501","-1.332219966352","2.1162042622268","10.212586515442"
"4.7420523331966","-9.9729198002815","-1.3092268140614","1.906859908551","10.237642253192"
"4.7520403333474","-10.060957818031","-1.449317330271","1.6527985346317","10.298307430647"
"4.7620293332729","-10.081231284142","-1.5813603235781","1.5218045318127","10.317354976465"
"4.7720183331985","-9.9322722959518","-1.5590988041461","1.1967894617468","10.124876644077"
"4.7820073333569","-9.7594753789902","-1.4640527522564","0.55641987204552","9.8843519366983"
"4.7919963332824","-9.7975290584564","-1.5778039008379","0.040401957817376","9.9238436665937"
"4.8019843332004","-9.7190547466278","-1.7185792721808","-0.10683681607246","9.8704079950115"
"4.8119733333588","-9.3339723265171","-1.8604489499331","-0.52765862423927","9.5321945695222"
"4.8219623332843","-8.933037520051","-2.1758071240783","-1.1987178003788","9.2720127448561"
"4.8319513332099","-7.838515933156","-2.6196856364608","-3.0096905350685","8.7956422156145"
"4.8419403331354","-3.9973560100794","-3.0601332950592","-8.5021790027618","9.8808055668479"
"4.8519283332862","7.7870779770613","-3.5985530984402","-21.17220420599","22.844045148862"
"4.8619173332117","32.404770963192","-3.3139726209641","-34.827522668839","47.6865592275"
"4.8719063331373","44.846347789764","-0.38664801210165","-28.012267720699","52.877514593841"
"4.8818953332957","25.273588614464","1.4580140402913","-3.6923389291763","25.583460539238"
"4.8918843332212","14.173312772512","-2.6783229768276","3.4668433964252","14.834932155255"
"4.9018723331392","25.95572479248","-3.299483512938","-3.7349019813538","26.429826593556"
"4.9118613332976","34.302468430996","6.5147285288572","15.830717743635","38.336831540215"
"4.9218503332231","23.163967001438","11.072433739901","39.082623360157","46.761304567774"
"4.9318393331487","10.408235650063","13.127059950829","7.513393201232","18.360341764145"
"4.9418283333071","5.9807426691055","6.9203972411156","-0.35186204910278","9.15341399427"
"4.951816333225","8.6746806353331","2.4423457252979","-1.2515017855167","9.0984280777536"
"4.9618053331506","14.525823862553","4.9771125411987","-6.9248656833172","16.844137640902"
"4.9717943333089","-4.6662394738197","0.59442048802972","2.2256362187862","5.2039007601986"
"4.9817833332345","-3.6635536712408","-0.012980234026909","5.0896679341793","6.271085525549"
"4.99177233316","-3.289681532979","0.54111208073795","3.8957121062279","5.127512036744"
"5.0017603333108","-3.6996947264671","0.37452673405409","4.2739684867859","5.6652288541249"
"5.0117493332364","-4.7884071046114","-0.16857493489981","3.3147117090225","5.8261972007563"
"5.0217388332821","-5.8489633852243","-0.32290992625058","2.8396137428284","6.5098425257932"
"5.0317278332077","-7.5440156543255","-0.46379434816539","3.1011199378967","8.1697137195448"
"5.0417168331333","-8.3839266675711","-0.55826437622309","3.0374811816216","8.9346615721959"
"5.051704833284","-8.8997557532787","-0.63603526800871","2.7485117840767","9.3361935689754"
"5.0616938332096","-9.3399271309376","-0.67732245773077","2.5261445116997","9.6991963902666"
"5.0716828331351","-9.5605893552303","-0.76448120042682","2.6199432063103","9.9425048518691"
"5.0816718332935","-9.6235141664743","-0.89288057439029","2.7587607836723","10.050871688266"
"5.0916608332191","-9.3051473075151","-0.86675718829036","2.6691077649593","9.7191136786734"
"5.101648833137","-8.8376396119595","-0.79414156727493","2.2349907405674","9.1503944368629"
"5.1116378332954","-8.9346916973591","-0.84729063794017","1.6087036581337","9.1178146839959"
"5.1216268332209","-9.2294194328785","-0.94558328323066","1.3824513494968","9.380164313446"
"5.1316158331465","-9.3833935779333","-1.0122982596606","1.4898892593384","9.5547157367451"
"5.1416038332973","-9.5438984781504","-0.95671630874276","1.3604973936081","9.6877374765561"
"5.1515928332228","-9.8327105855942","-1.0651077532768","1.3794704389572","9.9859696914272"
"5.1615818331484","-10.060746148825","-1.1380312301964","1.4059220731258","10.22205189909"
"5.1715708333068","-10.201073477268","-1.1414815990627","1.1261878410727","10.326334266476"
"5.1815598332323","-10.317999079227","-1.1120006686449","0.72072780132294","10.402744784412"
"5.1915488331579","-10.359447652102","-1.1112674278021","0.52639913398772","10.432169812699"
"5.2015368333086","-10.30653151989","-1.1198386419564","0.43155261833221","10.376168282024"
"5.2115258332342","-10.268723423481","-1.1292495162785","0.18750032544136","10.332329920691"
"5.2215148331597","-9.9344895601273","-1.0872537901998","-0.25917547663674","9.997168376709"
"5.2315038333181","-9.547855873704","-1.2144428636134","-0.85194516777992","9.6624134574602"
"5.2414918332361","-9.2231751912832","-1.4460661321878","-1.279429256916","9.4231102663195"
"5.2514808331616","-8.6105366796255","-1.6969258631766","-1.943671785593","8.9888130087573"
"5.26146983332","-6.3828077423573","-2.0261602109671","-4.4975432091951","8.0668119350199"
"5.2714588332456","0.59407126307487","-2.7769286674261","-10.72680716157","11.096334771945"
"5.2814478331711","26.900022053719","-2.9389941895008","-23.964621562958","36.146257897495"
"5.2914358333219","48.386163268089","-1.3158131177723","-30.917947983742","57.435804751848"
"5.3014248332474","28.210797064304","1.1663677874207","-14.418433899879","31.703323499975"
"5.311413833173","14.598890669346","-0.64710375487804","-0.35143871068954","14.617450571576"
"5.3214028333314","12.915782507658","-2.8355189377069","-10.732947907448","17.030965216781"
"5.3313918332569","27.928388242722","-0.64048514530063","-0.76351246297359","27.946163284763"
"5.3413798331749","41.606873373985","6.1954524278641","30.99286952734","52.250105304042"
"5.3513688333333","18.28687693119","10.530710259676","24.28025894165","32.168877828475"
"5.3613578332588","1.6134830260277","9.0310093724728","3.2934927481413","9.7472843522198"
"5.3713468331844","2.8418865555525","4.9086170876026","1.5085149800777","5.8691105248115"
"5.3813358333427","6.9469652348757","3.1166100892425","2.3092478942871","7.9565199842776"
"5.3913238332607","9.7565640503168","5.3312620210648","0.33075593948364","11.123052472082"
"5.4013128331862","-2.2271939170361","0.5647568686679","-5.2027858293056","5.687558654679"
"5.4113018333446","-3.1335556125641","-0.77478311732411","6.3170932245255","7.0940204724308"
"5.4212908332702","-3.9041975855827","-0.15773288145661","3.188615334034","5.0433031038794"
"5.4312798331957","-4.6526522988081","0.43566869270056","3.0923105227947","5.6035136292143"
"5.4412678333465","-5.2791036880016","0.36205641377717","3.7293237376213","6.4736292862208"
"5.4512568332721","-6.8176663398743","0.6540245924145","4.2045398175716","8.0365712568783"
"5.4612458331976","-8.2105520457029","0.41369394265115","4.0701251935959","9.1733432654037"
"5.471234833356","-8.9459902721643","0.046733505651355","3.3665040063858","9.5585707715757"
"5.4812238332815","-9.3867744380236","-0.073386101312935","2.7082174515724","9.7699212706756"
"5.4912118331995","-9.7825707113743","-0.24124091506004","2.5899002122879","10.122473512524"
"5.5012008333579","-10.092595932484","-0.68474798306823","2.4978053963184","10.419616319931"
"5.5111898332834","-10.178735944033","-1.0372188735008","2.4188923971355","10.513492704083"
"5.521178833209","-9.7692589402199","-0.99788501925766","2.3584017817676","10.099319468012"
"5.5311678331345","-9.034080914855","-0.9442232208699","1.9742351818085","9.295363361379"
"5.5411558332853","-8.9036687099934","-0.9290404868871","1.2534524166584","9.0393349138317"
"5.5511448332109","-9.3419198620319","-0.82505733132362","1.3248890197277","9.4714052401527"
"5.5611338331364","-9.5493252789974","-0.79757059380412","1.4967152988911","9.6987570761482"
"5.5711228332948","-9.806442553997","-0.87085608646274","1.2781159722805","9.92765260909"
"5.5811118332203","-9.9641922461987","-0.93571596063674","1.0765286079794","10.065764020778"
"5.5910998331383","-10.120670753717","-1.0766698182374","0.92176333464682","10.21943452681"
"5.6010888332967","-10.284001028538","-1.1739259714633","0.64848435558379","10.371080527162"
"5.6110778332222","-10.381991007328","-1.2752990761399","0.36990538716316","10.466563667474"
"5.6210668331478","-10.171423416138","-1.4260360564291","0.28967106342316","10.274986251552"
"5.6310558333062","-9.4791639536619","-1.5821960368752","0.038344889078289","9.6103779264931"
"5.6410438332241","-9.1510439389944","-1.7636194972694","-0.49359621763229","9.3325021366521"
"5.6510328331497","-8.7994871145487","-1.9154019597173","-1.1848131215572","9.0831448452291"
"5.661021833308","-7.7991261649132","-2.1324763324857","-2.2395572698116","8.389841536621"
"5.6710108332336","-5.4198894381523","-2.8460342779756","-4.2273743641376","7.4394762347745"
"5.6809998331591","3.7588469141722","-4.4319684398174","-8.729942085743","10.487285787855"
"5.6909878333099","29.747688581944","-6.2130706733465","-18.121901249886","35.382630315889"
"5.7009768332355","37.380648572445","-7.1106931203604","-22.156463677883","44.031621899016"
"5.710965833161","21.941480269432","-2.2238227048516","-12.864993592501","25.531980024502"
"5.7209548333194","14.74577038765","-1.0955208029598","-1.053853032589","14.823917038667"
"5.730943833245","17.909567799568","-3.1535244387388","-0.56784650087357","18.193949126059"
"5.7409318331629","27.718047523499","1.0486789776385","0.20550916492939","27.738639478712"
"5.7509208333213","31.521123361588","9.7654845625162","26.090320680141","42.067216926126"
"5.7609098332468","15.555205128193","12.977401635647","11.481096811295","23.285036907494"
"5.7708988331724","9.0146067631245","10.87401081562","0.14900693535805","14.125489350064"
"5.7808878333308","8.8774994963408","4.2721842089295","-0.09493009429425","9.8524396443399"
"5.7908758332487","6.627845839262","1.849924838841","3.5130972111225","7.7260866156923"
"5.8008648331743","4.0845315635204","3.1384012001753","2.5367367428541","5.7417761615377"
"5.8108538333327","-0.50048189878464","1.3394358690083","-3.1206414520741","3.4326336318634"
"5.8208428332582","-1.8627129918337","-0.50890101224184","4.3734916055202","4.7808062869942"
"5.8308308331762","-2.326605938673","-0.44035187389702","3.7255791807175","4.4144020204903"
"5.8408198333345","-3.4033841496706","-0.24832470718771","2.3710763525963","4.155320914234"
"5.8508088332601","-5.3862065523863","0.1204038547352","3.373791975975","6.3567436955062"
"5.8607978331856","-7.0273966097832","0.23831186201423","3.3839322173595","7.8033385743829"
"5.870786833344","-8.1518103325367","-0.003260188177228","3.1051650416851","8.7231916328017"
"5.880774833262","-8.8789057517052","-0.20716977417469","2.7783957338333","9.3057707642504"
"5.8907638331875","-9.2931213390827","-0.41823057800531","2.4846257722378","9.6286232799586"
"5.9007528333459","-9.6950519263744","-0.67488504588604","2.5654705452919","10.051424814374"
"5.9107418332715","-10.060323979855","-0.90945026792586","2.5883799362183","10.427700085047"
"5.920730833197","-10.422521567345","-1.2696799018979","2.4579472661018","10.783438581361"
"5.9307188333478","-10.535218462944","-1.4510815814137","2.3110149228573","10.882888210009"
"5.9407078332733","-10.474232003689","-1.4078401060402","2.0897445881367","10.773048884829"
"5.9506968331989","-10.458676071167","-1.2882801872492","1.9041305744648","10.708374491354"
"5.9606858333573","-10.396372818947","-1.1803142738342","1.8045558540523","10.617633041594"
"5.9706748332828","-10.312541288137","-1.0943423697352","1.7217301905155","10.512394964549"
"5.9806628332008","-10.176227488518","-1.0010004157573","1.5777799272537","10.346351880216"
"5.9906518333592","-9.8993384385109","-0.99513850897551","1.4046017718315","10.047890739337"
"6.0006408332847","-9.992667016983","-1.098548637405","1.2792515015602","10.133937419645"
"6.0106298332103","-9.8870405745506","-1.0396707572043","1.009983785525","9.9927250464135"
"6.020619208226","-9.8950781571865","-1.1361873838305","0.79874836921692","9.9920714801953"
"6.0306072081439","-9.5235671246052","-1.127672887668","0.64597940839827","9.6118294988268"
"6.0405962083023","-9.2410086143017","-1.4106463310122","0.2680772229284","9.3518997363236"
"6.0505852082279","-8.92537532866","-1.5868850652874","-0.0086269088834524","9.065351807373"
"6.0605742081534","-8.3738378816843","-1.7181069633365","-0.53412685073912","8.5649485637029"
"6.0705632083118","-6.9586421245337","-2.0054043495655","-1.6749337542057","7.4330175503337"
"6.0805512082297","-2.3901838839054","-2.5440989720821","-3.9318724572659","5.2578550378302"
"6.0905402081553","12.577141013145","-4.5467466518283","-9.3457603132725","16.315655580258"
"6.1005292083137","35.875640752316","-7.2839677548409","-19.286965985298","41.377588650872"
"6.1105182082392","34.214229269028","-5.6282637387514","-17.299351204634","38.749946958516"
"6.1205072081648","20.051367809772","0.65885512344539","-0.13882342457771","20.062669639399"
"6.1304952083156","8.9086902987957","2.2034137295187","-1.4125253337622","9.285204506192"
"6.1404842082411","14.004455709457","-0.5602494328469","-3.9947768032551","14.573843036515"
"6.1504732081667","33.178261699677","2.0131001624465","13.144952430725","35.744081972857"
"6.160462208325","27.120543944836","8.7453097379208","14.05404009819","31.772950592563"
"6.1704512082506","16.144868760109","11.374257656336","-2.4042125236988","19.894993399671"
"6.1804392081685","11.360536580086","7.4073141843081","-1.1138138902187","13.607743243998"
"6.1904282083269","8.0464832675457","2.194847997129","1.1439989715815","8.4185500148406"
"6.2004172082525","4.9220756238699","2.3125199961662","3.3034827160835","6.3629847740841"
"6.210406208178","2.997811331749","2.7885932779312","2.6837117707729","4.8954503489537"
"6.2203952083364","0.73649014055729","0.99338931441307","-1.7011421442032","2.1031225955499"
"6.2303832082544","-1.4490733551979","-0.64331037372351","3.3925708937645","3.7447562130134"
"6.2403722081799","-2.4407067507505","-0.35841012664139","3.486987054348","4.2713681624544"
"6.2503612083383","-4.0891555416584","0.30478933185339","2.8216931962967","4.9775538243915"
"6.2603502082638","-6.1734990566969","0.36408579960465","3.0204096508026","6.8824068123857"
"6.2703392081894","-7.2937004452944","0.19569731779397","2.9830459427834","7.8825710731103"
"6.2803272083402","-8.2709888666868","0.0058824451267719","2.8437500631809","8.7462109429089"
"6.2903162082657","-9.0911427229643","-0.24777912542224","2.7219899833202","9.4931290928543"
"6.3003052081913","-9.4569503813982","-0.40441280342638","2.7823379266262","9.8660460453895"
"6.3102942083497","-9.7243312740326","-0.60168199896812","2.8117084908485","10.140529798414"
"6.3202832082752","-9.9965729570389","-0.94141794607043","2.8203214395046","10.42937925558"
"6.3302712081932","-10.360744564533","-1.2909403780103","2.7914280080795","10.807572591261"
"6.3402602083515","-10.594581735134","-1.6143370118737","2.6503580832481","11.039730254847"
"6.3502492082771","-10.598948435783","-1.6070361784101","2.335594278574","10.971566609068"
"6.3602382082026","-10.477766060829","-1.4349419505894","2.0348208144307","10.769546683768"
"6.3702262083534","-10.255451413393","-1.1898369030654","1.8754665000737","10.493205903882"
"6.380215208279","-9.8307131767273","-1.0522842246294","1.6099992549419","10.017101439708"
"6.3902042082045","-9.5441545861959","-1.0841390515119","1.531543508023","9.726863305567"
"6.4001932083629","-9.5675873029232","-1.1432172719389","1.6666236913204","9.7787170456245"
"6.4101822082885","-9.7880641704798","-1.2159440631419","1.8017411506176","10.026514416483"
"6.4201702082064","-9.9419529461861","-1.210299526602","1.7978621077538","10.175439129923"
"6.430159208132","-10.031410667896","-1.1584253682196","1.5776830096543","10.220578897532"
"6.4401482082903","-9.9036092448235","-1.1085454758257","1.3346702420712","10.054436523306"
"6.4501372082159","-9.7329711198807","-1.215910076201","1.1784221879393","9.8791620589434"
"6.4601262081414","-9.5156745529175","-1.3806444136798","1.0553055540472","9.6730507600482"
"6.4701142082922","-9.2580766367912","-1.5378269259632","0.83528177261353","9.4220268682793"
"6.4801032082178","-8.7630665624142","-1.6951259440184","0.34102474652231","8.9320258296271"
"6.4900922081433","-8.0388356941938","-1.9493851000071","-0.40441916227341","8.2816988864114"
"6.5000812083017","-5.5709160017967","-2.446644744426","-2.3609583306313","6.5265074767045"
"6.5100702082273","4.4189238864183","-3.6256654679775","-7.6525715517998","9.5516590053801"
"6.5200582081452","32.105646121502","-5.5008049625158","-21.624430203438","39.097920018053"
"6.5300472083036","41.466310987473","-5.8494516277313","-30.28955473423","51.682958093097"
"6.5400362082291","21.010699431896","-2.3346049296856","-16.136897835732","26.595099972665"
"6.5500252081547","8.7793159747124","1.1374806417525","-2.4342460159957","9.181274686044"
"6.5600142083131","12.038778512478","-1.3190517443419","2.4963307285309","12.365425697604"
"6.570002208231","30.059389615059","3.2674147510529","-3.9323566067219","30.491086101806"
"6.5799912081566","38.968155927658","11.494828412533","24.434351785183","47.40976485702"
"6.589980208315","15.550567116737","10.764009486437","12.428663835526","22.630857752475"
"6.5999692082405","7.0024921488762","9.8763998115063","-0.93679645299912","12.143136214592"
"6.6099582081661","5.1886659729481","5.3460005128384","-1.7280241334438","7.6477476074895"
"6.6199462083168","6.0136344265938","-0.82077007971704","0.45185060620308","6.0861836573339"
"6.6299352082424","6.2631696170568","2.9215057522058","0.038464154005051","6.911148168238"
"6.6399242081679","-2.1626798325777","1.315025497824","-3.0824146950245","3.9884528918201"
"6.6499132083263","-1.9740597653389","0.079830865859985","4.4229719138145","4.8441681922355"
"6.6599022082519","-2.7018872559071","0.23176908351481","4.4407088577747","5.2032496395258"
"6.6698902081698","-3.6105802363157","0.10785605885088","4.741573830843","5.9607419811328"
"6.6798792083282","-4.8770672661066","0.23556955441833","5.0329347395897","7.012254289889"
"6.6898682082538","-6.1690803158283","0.35813384570181","4.6026922264695","7.7052311792821"
"6.6998572081793","-7.3985930621624","0.35370655328035","4.1033490729332","8.4676892503004"
"6.7098452083301","-8.1721305763721","0.15904448501766","3.7373484563828","8.9875907110815"
"6.7198342082556","-8.7019274908304","-0.16083314828575","3.5062536299229","9.3831350770734"
"6.7298232081812","-9.2519616186619","-0.55949879653752","3.4206679344177","9.8799191198143"
"6.7398122083396","-9.7704161041975","-0.89635498993099","3.502347689867","10.417817547733"
"6.7498012082651","-10.233544235229","-1.1946848295629","3.5453595158458","10.895975107946"
"6.7597892081831","-10.610431197882","-1.4942135676742","3.4623796319962","11.260639284999"
"6.7697782083414","-10.754554538727","-1.5891741040349","3.1782321408391","11.326388532999"
"6.779767208267","-10.623013236523","-1.5266663454473","2.874061152041","11.1103261815"
"6.7897562081926","-10.486053904295","-1.3951158338785","2.743415350914","10.928403472665"
"6.7997452083509","-10.439085559845","-1.2892075556517","2.4622356140614","10.802738896524"
"6.8097332082689","-10.336219003201","-1.0873743890226","2.0984420290589","10.602983791997"
"6.8197222081944","-10.10904999733","-0.82285103067756","1.9495692873001","10.328155501985"
"6.8297112083528","-9.8452505242825","-0.72624172568321","2.0049552834034","10.073541116135"
"6.8397002082784","-9.7990458261967","-0.78248528905213","2.0948211407661","10.050963035614"
"6.8496892082039","-9.7655102902651","-0.81365431062877","2.111608350724","10.024276252844"
"6.8596772083547","-9.5296394580603","-0.88513783760369","1.7557646401227","9.7303754636541"
"6.8696662082803","-9.2182617759705","-1.0040220375359","1.3932817085087","9.3768675122047"
"6.8796552082058","-9.0791623628139","-1.1107311650366","1.0551455596089","9.2075102543132"
"6.8896442081314","-8.6070365363359","-1.2850729894638","0.26867824360728","8.7065882252843"
"6.8996332082897","-5.9607434374094","-1.6637962701917","-1.821295555383","6.4510307591408"
"6.9096212082077","4.2353780329227","-2.3429974383116","-7.0905523860455","8.5851032152767"
"6.9196102081332","30.319845650196","-2.9120777016878","-22.130527768135","37.65014603011"
"6.9295992082916","39.220774354935","-3.5139737087488","-27.210013360977","47.864412451539"
"6.9395882082172","20.078627529144","1.1746395510435","-9.3131878137588","22.164533128025"
"6.9495772081427","7.2691456478834","2.512328710556","-2.6817529535294","8.1451871006006"
"6.9595652082935","12.446649870872","-2.1146604511142","-7.1801270520687","14.523949404878"
"6.9695542082191","29.542874650955","1.6167146359384","6.2293487370014","30.235740350507"
"6.9795432081446","34.371610586643","7.6945071977377","16.7941365695","39.021225998819"
"6.989532208303","17.162480750084","7.9522811150551","4.0692153668404","19.348075721673"
"6.9995212082285","10.016116690636","6.1579893171787","-1.105625449419","11.809565344471"
"7.0095092081465","9.0208738088608","3.8905341044068","-2.7495771467686","10.201597638555"
"7.0194980415981","7.0963171559572","0.92112861938775","-0.12081633925438","7.1568702446823"
"7.0294870415237","4.2385080474615","1.0868450698256","1.5185137188435","4.6316375709371"
"7.0394760416821","4.6908258461952","1.4218569052219","-2.8877176165581","5.688975058061"
"7.0494640416","1.2682897263765","-0.93857196003199","0.78243814587593","1.7611603011402"
"7.0594530415256","-0.93705489993095","-0.89637918278575","4.3981446361542","4.5853291883297"
"7.0694420416839","-2.0441567713022","-0.1537810042128","2.9315249562263","3.5771586590331"
"7.0794310416095","-3.4387761765718","0.07778909124434","2.7262701451778","4.3890524763054"
"7.089420041535","-4.9476928603649","-0.009140915684402","3.0833759772778","5.8298332406767"
"7.0994080416858","-6.2782174265385","-0.036753295250237","3.1466852429509","7.0227482425193"
"7.1093970416114","-7.6600238281488","0.071567836515605","3.1547084999084","8.2845200659076"
"7.1193860415369","-8.4321773064137","-0.037890980690718","3.4027029490471","9.0929333667782"
"7.1293750416953","-8.7626414698362","-0.16719312820584","3.5503790581226","9.456057874578"
"7.1393640416209","-9.0964262670279","-0.12933847334236","3.4591893911362","9.7328151382788"
"7.1493520415388","-9.5090461492538","-0.29016380097717","3.2555378866196","10.055082328417"
"7.1593410414644","-9.9006411981583","-0.58847394280136","3.0156573262811","10.366445235739"
"7.1693300416227","-10.151872665882","-0.85785926096141","2.8494557762146","10.579028280353"
"7.1793190415483","-10.335108032227","-1.1620819976181","2.8122511124611","10.773748137325"
"7.1893080414739","-10.437520844936","-1.3201516056061","2.6162559521198","10.841099430282"
"7.1992960416246","-10.437898575068","-1.2395398440957","2.2903931088746","10.757884842369"
"7.2092850415502","-10.30962469697","-0.92532436206937","1.9438075871766","10.531997650179"
"7.2192740414757","-9.8659999537468","-0.64855839595199","1.7750801861286","10.045371707781"
"7.2292630416341","-9.5679930996895","-0.67558671176434","1.8040848608315","9.7600016160808"
"7.2392520415597","-9.6574093061686","-0.8641419479996","1.9391613896191","9.8880049913091"
"7.2492400414776","-9.9227214539051","-0.974906777367","1.9966804499924","10.168459917595"
"7.259229041636","-10.041701767445","-0.96724889829755","1.8966628029943","10.264924481253"
"7.2692180415615","-10.099839463234","-0.93859461799264","1.7568694715202","10.29438232144"
"7.2792070414871","-10.127400898933","-0.96535418115556","1.7006370909512","10.314471589854"
"7.2891960416455","-10.172575317621","-1.0612430360913","1.6874982511997","10.366058832658"
"7.2991840415634","-9.8441056394577","-1.1762024386972","1.6354018986225","10.048104666434"
"7.309173041489","-9.0881401777267","-1.1265641093999","1.40120921731","9.2642768661819"
"7.3191620416474","-8.4636908751726","-1.3268316109478","0.92271752715111","8.6166091352227"
"7.3291510415729","-5.3530937701464","-1.9852680006623","-1.0573567572981","5.8064537592783"
"7.3391400414985","8.3677526843548","-3.4342249962687","-6.3959908747673","11.077991044482"
"7.3491280416492","41.61682299614","-5.9940643805265","-21.530912175179","47.238426552809"
"7.3591170415748","44.659274311066","-3.1871611315012","-31.31059787035","54.634808657741"
"7.3691060415003","20.296578984261","-1.7017790521681","-20.314174425602","28.766523130203"
"7.3790950416587","9.3459094172716","2.8366632378101","-2.1121815240383","9.992696930813"
"7.3890840415843","-2.1898652923107","1.3530240672827","3.1270500004292","4.0502624396818"
"7.3990720415022","20.357960715294","0.16113113701344","-8.0098820364475","21.877630995301"
"7.4090610416606","44.524035229683","6.2825660008192","22.865321631432","50.444853870316"
"7.4190500415862","19.631032526493","9.1821172124147","14.543823931217","26.100029293106"
"7.4290390415117","6.214226667881","7.1856591027975","0.2574751428701","9.5035047887932"
"7.4390270416625","5.5326389586926","4.2471759599447","0.010990426540375","6.9748633156106"
"7.449016041588","3.8585694229603","1.5626087415218","0.94857976198196","4.2696730127407"
"7.4590050415136","5.216025094986","2.9095935121179","3.9656249248981","7.1692979602089"
"7.468994041672","0.60968274414539","1.5791537305713","-3.9929676747322","4.3369609641709"
"7.4789830415975","-3.5134205621481","-1.2137915568799","2.6057485055923","4.5395307317469"
"7.4889710415155","-3.3543558311462","-0.13840395994484","4.331010414362","5.4798275435806"
"7.4989600416739","-4.0853133362532","0.13096579000354","4.04411911726","5.7499423065025"
"7.5089490415994","-4.6317128348351","0.28098041988909","4.3291732192039","6.3461369779268"
"7.518938041525","-5.8372174984217","0.39348253011703","3.9303896033764","7.0481131559955"
"7.5289270416833","-6.9849990338087","0.19979168437421","3.4808778834343","7.8068328442996"
"7.5389150416013","-8.1321578407288","0.090347302481532","3.1974750351906","8.7386498031595"
"7.5489040415268","-8.7566439807415","-0.059515153616667","3.0136420834064","9.260906784211"
"7.5588930416852","-9.1221329659224","-0.37131186179817","2.8734188354015","9.5711920966157"
"7.5688820416108","-9.5704354816675","-0.70595510333776","2.8612145268917","10.013898166328"
"7.5788710415363","-10.04434470892","-1.0743019151688","2.8315901935101","10.490990814052"
"7.5888590416871","-10.309580258131","-1.3293849438429","2.6134422719479","10.718432251806"
"7.5988480416127","-10.484048309326","-1.4894812698662","2.5422758102417","10.89022450186"
"7.6088370415382","-10.466317212582","-1.42517344594","2.4262002472579","10.83795935521"
"7.6188260416966","-10.255127477646","-1.2247239498049","2.0374798357487","10.527056208507"
"7.6288150416221","-9.6914687526226","-0.89563395515084","1.5794041375816","9.86008337665"
"7.6388030415401","-9.1866306781769","-0.69040743000805","1.4880168347061","9.331936548059"
"7.6487920414656","-9.1227264583111","-0.68440314352512","1.5674559371173","9.281673545802"
"7.658781041624","-9.2164608335495","-0.77084150925279","1.6740613496304","9.398926977643"
"7.6687700415496","-9.5759178310633","-0.87591655924916","1.840405279398","9.790430211103"
"7.6787590414751","-9.6532916969061","-0.82929276198149","1.7069015054405","9.8380526436844"
"7.6887470416259","-9.495129776001","-0.7880362701416","1.383922508955","9.6277584170435"
"7.6987360415515","-9.2743903684616","-0.81306505747139","1.2850286968052","9.3982280375562"
"7.708725041477","-8.9836223673821","-0.95038318946958","1.3005634331703","9.1268923676273"
"7.7187140416354","-8.5745412200689","-1.0938163395971","1.0108771669865","8.7029342158932"
"7.7287030415609","-7.9797846633196","-1.2737405008078","0.222178992033","8.0838568543022"
"7.7386910414789","-6.239180830121","-1.6076157836616","-1.3976120102406","6.5928086025606"
"7.7486800416373","1.1477908909321","-2.4534893488884","-5.4135545647144","6.0533963144301"
"7.7586690415628","26.142073216438","-3.1809891030192","-18.241299054623","32.035475256773"
"7.7686580414884","43.576744194031","-3.2696776235104","-27.611672637463","51.691661727517"
"7.7786470416468","24.695100181103","2.5301942932606","-13.095629997253","28.066802118184"
"7.7886350415647","7.5098948121071","-0.44823187407106","-12.28409961462","14.404809448367"
"7.7986240414903","17.322542431355","-3.6141715961695","-5.2219997799397","18.449986295776"
"7.8086130416486","32.961821165085","0.80525003448129","4.4398294365406","33.269237556076"
"7.8186020415742","31.060563912392","9.1774061107636","20.680741052628","38.42754824294"
"7.8285910414997","13.164786186218","6.307692655921","8.9550283133984","17.125744190083"
"7.8385790416505","5.0799405062199","6.4673386001587","0.99844949483871","8.2842721774203"
"7.8485680415761","4.5583285242319","3.6858581677079","-0.33539745926857","5.8716608232228"
"7.8585570415016","5.027555885911","1.6786107757688","0.85552132487297","5.3689821251144"
"7.86854604166","5.1875316131115","3.3556740859151","1.2215207719803","6.2978683539982"
"7.8785350415856","0.4386680585146","-0.24735180359334","-3.806114051342","3.8392859690475"
"7.8885230415035","-1.2499230372906","-1.2559963940084","4.1099119877815","4.4756241004157"
"7.8985120416619","-1.7836878722906","-0.54286909595132","3.2792787516117","3.7722564085528"
"7.9085010415874","-2.9144773989916","-0.47837748672813","2.4905934405327","3.8634284275842"
"7.918490041513","-4.3811573052406","-0.2781553741917","2.9003113496304","5.2615316848091"
"7.9284790416714","-5.629765303731","-0.030559887886047","3.0283361363411","6.3926528950436"
"7.9384670415893","-7.033484145999","0.13450693689287","3.1477210772038","7.7068890823706"
"7.9484560415149","-8.4300325477123","0.22595347937196","3.2156481814384","9.0253474701597"
"7.9584450416733","-9.0126005834341","0.093566560149193","3.1634126651287","9.5521151410351"
"7.9684340415988","-9.3940442812443","-0.29626018110663","3.1042996537685","9.8981066064816"
"7.9784230415244","-9.6850999653339","-0.66765598699451","3.126591578722","10.19914215783"
"7.9884110416751","-9.8842467749119","-0.9546512183547","2.9429983627796","10.357168175683"
"7.9984000416007","-9.9899585866928","-1.1323832584172","2.5675275957584","10.376596858448"
"8.0083890415262","-10.080561193228","-1.2237271457165","2.2958377437294","10.410864183299"
"8.0183775415644","-10.166981871128","-1.3102411597967","1.9963842885196","10.443648906973"
"8.0283655414823","-10.041168501377","-1.1562749815732","1.7422831535339","10.256587507214"
"8.0383545416407","-9.7392773419619","-0.90810292325914","1.3332961463928","9.871973089351"
"8.0483435415663","-9.5653326165676","-0.75801417991519","1.1899294352531","9.6688213151039"
"8.0583325414918","-9.5790232872963","-0.64761450916529","1.3207129383087","9.6913040586116"
"8.0683215416502","-9.7388984423876","-0.6113904234767","1.4193285691738","9.8607522384619"
"8.0783095415682","-9.9690629768372","-0.60881048575044","1.4159126257896","10.08750094957"
"8.0882985414937","-10.031401312351","-0.61088946327567","1.3948240578175","10.146316197421"
"8.0982875416521","-10.020254180431","-0.58667767815292","1.3918441705406","10.133455221866"
"8.1082765415777","-9.7177157342434","-0.58343656651676","1.380964987278","9.8326731672927"
"8.1182655415032","-9.2425727444887","-0.78305093407631","1.2740661907196","9.3627754624822"
"8.1282545416616","-8.5952836328745","-0.86863736048341","1.0755907145888","8.7057640089137"
"8.1382425415795","-7.7305166906118","-1.0206974194944","0.51987250842154","7.8149202779685"
"8.1482315415051","-4.594453791976","-1.6579817989469","-1.401003395319","5.0814092342515"
"8.1582205416635","11.449257552624","-3.8164355564117","-8.2524759972095","14.620329645636"
"8.168209541589","44.156039543152","-7.3422913920879","-25.523037850857","51.527570602145"
"8.178197541507","46.035245776176","-2.5755797964334","-22.67866915226","51.382871654652"
"8.1881865416653","22.997440638542","7.543468939662","-2.2146305894852","24.304131093598"
"8.1981755415909","6.4909046334028","1.7047180089355","-9.0519903516769","11.26838212774"
"8.2081645415165","19.55331133604","-0.68651274584234","-2.2259905600548","19.691579873839"
"8.2181535416748","30.885318181515","4.352864382863","20.401917743683","37.270478332442"
"8.2281415415928","16.390303298235","6.5018816113472","7.6403116947412","19.216942251277"
"8.2381305415183","7.0286596083641","5.6668717342615","-0.039530695276335","9.028679516889"
"8.2481195416767","4.1578714352846","3.346055123806","-0.67189068675041","5.3791650707936"
"8.2581085416023","1.9777242153883","2.8209397825599","1.1697542023659","3.6383264316049"
"8.2680975415278","1.6634854906797","2.9791148597002","2.4710473680496","4.2128831481699"
"8.2780855416786","-1.1475242578983","1.4001346452534","-2.6683979129791","3.2245211069701"
"8.2880745416041","-3.5240297502279","-0.90159614168108","1.5582654297352","3.9572531423569"
"8.2980635415297","-3.6770507991314","-0.6922321998328","2.9791025805473","4.7827753640854"
"8.3080525416881","-4.6097009915113","-0.34282620057464","2.5197383022308","5.2645943952664"
"8.3180415416136","-5.6005531990528","-0.12681682504714","2.8747964394093","6.2965651914815"
"8.3280295415316","-6.4523434156179","-0.06665877006948","2.8363907575607","7.0485666255113"
"8.33801854169","-7.3873365873098","-0.01383962854743","2.8167780268192","7.9061477245177"
"8.3480075416155","-8.5809193629026","-0.069244555011392","2.9217004644871","9.0649492842056"
"8.3579965415411","-9.1810775774717","-0.22818203598261","2.9258753764629","9.6387239427059"
"8.3679855414666","-9.6110397166014","-0.51718637064099","2.9928634178638","10.079523679919"
"8.3779735416174","-10.052467660904","-0.95631007343531","2.9703750264645","10.525671609352"
"8.3879625415429","-10.276258145571","-1.3327526476979","2.6019714966416","10.684005183623"
"8.3979515414685","-10.406210174561","-1.5108410024643","2.2637705898285","10.756231125038"
"8.4079405416269","-10.549456433058","-1.5033612442017","2.1528641116619","10.871336161983"
"8.4179295415524","-10.563226625919","-1.428424205482","1.9152648425102","10.830068876895"
"8.4279175414704","-10.523245704174","-1.2708282950521","1.5472912292182","10.712040648445"
"8.4379065416288","-10.424471029043","-1.0805152396113","1.2043498384953","10.549292296257"
"8.4478955415543","-10.204004101753","-0.92914237461984","1.1055776484311","10.30569295087"
"8.4578845414799","-10.112961784601","-0.84661345727742","1.1455667562783","10.21278970683"
"8.4678735416383","-10.156187911034","-0.86195655114949","1.1765990260988","10.260385336259"
"8.4778615415562","-10.149879934788","-0.85093930050731","1.2137813973427","10.257554565504"
"8.4878505414817","-10.076412009001","-0.76393236614764","1.2163541722298","10.178270437922"
"8.4978395416401","-9.6826803874969","-0.82048290833831","1.0845965961367","9.7777216909485"
"8.5078285415657","-9.1721237361431","-0.94873500555754","0.91335386909544","9.2661840706993"
"8.5178175414912","-8.6808044242859","-1.1254902682453","0.64803295053542","8.777416504963"
"8.527805541642","-7.1308215755224","-1.2913124071062","-0.13561673842371","7.2480684305836"
"8.5377945415676","2.1388302093744","-1.6156561437249","-3.4060756230354","4.3343154694975"
"8.5477835414931","35.611769943237","-1.7574053688347","-16.353305625916","39.226486421996"
"8.5577725416515","55.530136985779","-1.7814428338408","-20.86318353653","59.346795023055"
"8.5677615415771","35.036520867348","4.2907435637712","-1.2068044996262","35.31889935882"
"8.577749541495","14.669438495636","1.1715835768729","-9.9118877327442","17.74290146175"
"8.5877385416534","17.868108701706","-2.5496509033442","-8.8548105454445","20.104171161742"
"8.5977275415789","26.350910031796","3.2038061079383","15.345774235725","30.661500615183"
"8.6077165415045","19.285871386528","4.7159144943953","9.1803139311075","21.873793647418"
"8.6177055416629","9.9480995392799","3.1020885291696","-0.73293503344059","10.446283140403"
"8.6276935415808","7.370198982954","1.9592870673537","-0.35035346746445","7.6342246765995"
"8.6376825415064","4.2115213930607","2.7420915412903","2.1122230392694","5.451372729198"
"8.6476715416647","2.8169487655163","2.3652209508419","2.9614568531513","4.7222555190208"
"8.6576605415903","0.64668860256672","0.9848721139133","-0.90123251795769","1.4833742888692"
"8.6676495415159","-1.351557585597","-0.60929821662605","3.5297208452225","3.8284306796867"
"8.6776375416666","-1.9689224016666","-1.188757872507","2.7475154185295","3.5831050331088"
"8.6876265415922","-2.8575886684656","-1.1653710564226","1.5472469365597","3.4522276547157"
"8.6976155415177","-4.3830634975433","-0.79617530196905","1.7011000442505","4.7685303915894"
"8.7076045416761","-5.7238049036264","-0.43887885063887","1.8747319436073","6.0389715250776"
"8.7175935416017","-6.7431248652935","-0.2262743087858","1.9768991732597","7.0305805843466"
"8.7275815415196","-7.6845575755835","-0.24575825460255","2.0573627078533","7.9589926224258"
"8.737570541678","-8.596032076478","-0.38001354195178","2.4263360488415","8.9399823475113"
"8.7475595416036","-9.2249819809198","-0.62796377152205","2.8584195578098","9.6780779814543"
"8.7575485415291","-9.7827233237028","-0.92334712609649","3.1338970899582","10.313852651354"
"8.7675375416875","-10.092869582176","-1.1175289186835","3.0576353645325","10.60490553043"
"8.7775255416054","-10.21949454546","-1.2231271483004","2.6921504724026","10.63869272757"
"8.787514541531","-10.456868112087","-1.3731592467427","2.3981058378518","10.815848031479"
"8.7975035416894","-10.659865897894","-1.5166563507915","2.2462675344944","10.999032015773"
"8.8074925416149","-10.795605500937","-1.605899772048","2.2304660189152","11.139972660256"
"8.8174815415405","-10.739938838482","-1.5513643996418","1.9114220523834","11.018464140575"
"8.8274695416912","-10.666874370575","-1.3402522864938","1.5888872981071","10.867522619032"
"8.8374585416168","-10.58905143857","-1.1036484327167","1.3440902526677","10.730919291423"
"8.8474475415424","-10.388757405281","-0.90290328674018","1.2334547929466","10.500615481829"
"8.8574365414679","-10.215611994267","-0.72570940978825","1.0752760612965","10.297650274352"
"8.8674255416263","-10.175570261478","-0.74853628188372","1.177845652476","10.270825531214"
"8.8774135415442","-10.136627805233","-0.83618421725929","1.4399177849293","10.272477331899"
"8.8874025414698","-9.9150639402866","-0.82924905404449","1.4686252748966","10.057485129577"
"8.8973915416282","-9.7896043270826","-0.93013800926507","1.3475773859024","9.925596929561"
"8.9073805415537","-9.6295303666592","-1.0721319403499","1.1817048148066","9.7608272318112"
"8.9173695414793","-9.3231748580933","-1.1384504755586","0.96100041747093","9.4414607303246"
"8.92735754163","-9.1038955003023","-1.1194824003428","0.8256549898535","9.2095526648894"
"8.9373465415556","-7.8860748463869","-1.3809854525328","0.45435442049056","8.0189609827173"
"8.9473355414812","-3.533019259572","-2.2182795444131","-0.81052809678018","4.2496994036447"
"8.9573245416395","14.401776351929","-4.602916174829","-5.055064111948","15.94213513239"
"8.9673135415651","50.546901240349","-6.3465871649981","-19.694133338928","54.618012428282"
"8.977301541483","48.436701922417","-0.37168264836073","-20.835119240284","52.729066318957"
"8.9872905416414","23.337474939823","7.7312826758623","-3.8021391141415","24.877032182804"
"8.997279541567","4.7971223795414","4.7450248575211","-8.2936310398579","10.691677129809"
"9.0072685414925","25.097454106808","0.02461443901062","-4.5649060571194","25.509237068643"
"9.0172575416509","32.994778411388","7.344003456831","17.851839408875","38.226665555222"
"9.0272465832531","16.967567324638","6.0953638833761","4.8143406754732","18.660913105377"
"9.0372355831787","10.504843347073","3.2576197877526","-0.73962600231171","11.023196770964"
"9.0472245833371","6.8346606874466","2.6518614023924","-1.3613738912344","7.4564263881407"
"9.0572135832626","4.3699341595173","2.8572372508049","1.5875582259893","5.45714855825"
"9.0672015831806","2.6648439753056","2.4668417581916","1.2098883211613","3.8276012621958"
"9.077190583339","-0.15970383167267","0.2503355281055","-0.062358225183561","0.30341677397737"
"9.0871795832645","-1.8027293300629","-0.82036377131939","4.0709987676144","4.5272354390599"
"9.0971685831901","-2.8355586987734","-0.64773481562734","2.3522740459442","3.7407414656439"
"9.1071575833485","-3.3592517048121","-0.33567081660032","1.9617958152294","3.9045985368603"
"9.117146583274","-4.5410839158297","-0.26241105169058","2.6934438765049","5.2862976275024"
"9.1271345831919","-5.7398888397217","-0.27866367995739","3.0231566727161","6.4933391723117"
"9.1371235833503","-6.830057759285","-0.2715550006181","2.7981745254993","7.3860146079386"
"9.1471125832759","-7.7441120517254","-0.31948791638017","2.5750237262249","8.1672572623257"
"9.1571015832014","-8.3966145408154","-0.47104328759015","2.7126484715939","8.8364856847197"
"9.1670895833522","-9.118455067277","-0.83598811626434","2.9851871931553","9.6310145635163"
"9.1770785832778","-9.9098295128346","-1.1285819104314","3.0456076419353","10.428525495515"
"9.1870675832033","-10.695378377438","-1.4733164960146","2.9105135715008","11.181809754413"
"9.1970565833617","-11.048287078142","-1.6046730262041","2.788644733429","11.507222181367"
"9.2070455832873","-11.261747871637","-1.6553938212991","2.4527198553085","11.644016854872"
"9.2170335832052","-11.24003715992","-1.4409620976448","1.9414627075195","11.497133754459"
"9.2270225831307","-11.112540961504","-1.266875577271","1.5199182200432","11.287324383795"
"9.2370115832891","-10.870843963623","-1.083417724371","1.6868376620114","11.054160472189"
"9.2470005832147","-10.263718206882","-0.89188384339213","1.4272421908379","10.400787878411"
"9.2569895831402","-9.8098432946205","-0.76034692659974","0.86533996939659","9.8772448676965"
"9.266977583291","-9.8092182272673","-0.68903231106699","0.85307609237731","9.8703225162723"
"9.2769665832166","-10.033501632214","-0.71450979910791","0.96556701980531","10.10514715016"
"9.2869555831421","-10.081522475481","-0.72447418548167","1.0603656613827","10.162988419008"
"9.2969445833005","-9.9443082046509","-0.7218523670733","1.0318242323399","10.023721751694"
"9.3069335832261","-9.7297639220953","-0.77566604688764","1.0683810245991","9.8189307875005"
"9.316921583144","-9.5234244525433","-1.0022684575617","1.2047872102261","9.651511155578"
"9.3269105833024","-9.0427038037777","-1.271266836226","1.5061304855347","9.2550008369098"
"9.3368995832279","-8.0434415459633","-1.5269790253043","2.0384785401821","8.4370617874845"
"9.3468885831535","-5.8071277266741","-1.8007558947802","2.8017237854004","6.6944088907215"
"9.3568775833119","-1.0125716900826","-2.0034035785496","1.7767022037506","2.8627954951261"
"9.3668655832298","14.070627479553","-2.8727259403467","-0.99209357142448","14.395115895718"
"9.3768545831554","40.201548886299","-4.7772415539622","-9.9267057466507","41.6836425556"
"9.3868435833137","43.525681629181","1.2440750907362","-15.201715214252","46.120763540638"
"9.3968325832393","20.685942735672","6.3205635470152","-11.55323040247","24.522130477344"
"9.4068215831649","4.1680976307392","6.4358741480112","-12.816441822052","14.935015731041"
"9.4168095833156","13.688362247944","-2.6939487835765","-13.198089587688","19.204639799906"
"9.4267985832412","35.157700903416","1.6192673841119","12.530456843376","37.359045870833"
"9.4367875831667","25.880286355019","7.36886757195","10.533332151175","28.897067624893"
"9.4467765833251","13.230181446075","6.426802777648","2.2753322893381","14.883502009466"
"9.4567655832507","8.7408079665899","4.7732952681184","-0.1673888637498","9.9606270212849"
"9.4667535831686","7.0876393032074","3.7974873617291","1.3004956054687","8.1453563442434"
"9.476742583327","4.402623603344","2.10822237432","1.5731805074215","5.1286053739039"
"9.4867315832525","2.5342107456923","1.6177725434303","2.1049847710133","3.6702006746303"
"9.4967205831781","0.51798612356186","0.1237940338254","-3.0307697474957","3.0772065009271"
"9.5067095833365","-1.51338337183","-0.79993082240224","0.75014748215675","1.8689408218953"
"9.5166975832544","-2.3855464571714","-0.44076881691813","3.026291949749","3.8786018117881"
"9.52668658318","-3.5838461816311","-0.088816209062934","1.0879154026508","3.7463851505029"
"9.5366755833384","-4.4168492943048","-0.030052861198783","1.7019174849987","4.7334959584658"
"9.5466645832639","-5.9004779398441","-0.1188996950537","2.5656997561455","6.4352616337454"
"9.5566535831895","-7.4410216283798","-0.28904519207776","2.8827732110024","7.9851569416732"
"9.5666415833402","-8.6789643055201","-0.24486596949399","3.1077799165249","9.2218586396161"
"9.5766305832658","-9.3892998504639","-0.11875804625452","3.235449192524","9.9318269534298"
"9.5866195831914","-9.7034514516592","-0.13201448813081","3.2375752401352","10.230165753072"
"9.5966085833497","-10.232173647881","-0.46408086173236","3.0778901195526","10.69514638491"
"9.6065975832753","-10.706863478422","-0.84442075140774","2.8373988175392","11.108591449898"
"9.6165855831932","-10.976238856316","-0.98200807459652","2.5840003716946","11.318975978876"
"9.6265745833516","-11.019622857571","-1.1327822577953","2.270326488018","11.307947025383"
"9.6365635832772","-10.990697851181","-1.2619589459896","1.9513982963562","11.233696406274"
"9.6465525832027","-10.845200414658","-1.2809859319031","1.6827900731564","11.049483219687"
"9.6565415833611","-10.591021950245","-1.2343252971768","1.3930032348633","10.753314042757"
"9.666529583279","-9.8616753530502","-0.88936954066157","1.0834305882454","9.960795188556"
"9.6765185832046","-9.2391807746887","-0.72893268741667","1.0789632423967","9.3304858356146"
"9.686507583363","-9.228088606596","-0.82025194332004","1.2172979128361","9.3441022463532"
"9.6964965832885","-9.2749072623253","-0.80823818095028","1.2469316017628","9.3931886013938"
"9.7064845832065","-9.5489533960819","-0.80378472223878","1.1558976168931","9.6521852521068"
"9.716473583132","-9.5631252926588","-0.91396190643311","1.1151997534186","9.6712130686655"
"9.7264625832904","-9.3906558197737","-1.082407252416","1.1599530994892","9.5237342139807"
"9.736451583216","-8.9887287408113","-1.1814720225334","1.1866093131155","9.1433671138093"
"9.7464405831415","-8.4488290071487","-1.3444286602736","1.0606181880087","8.6206212627245"
"9.7564285832923","-7.8971564894915","-1.5401530945301","0.58871057230979","8.0674489345801"
"9.7664175832178","-6.9892365109921","-1.9862313294411","-0.33069754041731","7.2735069095915"
"9.7764065831434","-4.0116232162714","-2.7356888401508","-1.4169592773914","5.0581506356809"
"9.7863955833018","6.4436053365469","-5.4523292058706","-3.1054632496834","8.9939894094612"
"9.7963845832273","26.27922082901","-8.6200237870216","-7.2993307292461","28.603889360778"
"9.8063725831453","36.906034755707","-4.6473538443446","-9.7079941534996","38.44344482"
"9.8163615833037","24.504836461544","3.3111393526196","-9.3768476200104","26.445716573925"
"9.8263505832292","13.760336794853","7.3760070222616","-6.0075527375937","16.72850974221"
"9.8363395831548","7.0410966360569","4.9421695804596","-9.1008701509237","12.52309544419"
"9.8463285833132","17.282704181671","-1.7921718898416","-6.6962290263176","18.621042588609"
"9.8563165832311","39.631847648621","1.821281375885","19.003896428347","43.990322723901"
"9.8663055831566","23.767614834309","8.6175591856241","4.8677316015959","25.746002644585"
"9.876294583315","13.471627013683","8.23282292068","-1.0914266556501","15.825780226698"
"9.8862835832406","8.2684564375877","4.6809130614996","0.97894961535931","9.5517883822359"
"9.8962725831661","5.3264532709122","3.2511206075549","2.5786794054508","6.7520720618322"
"9.9062605833169","3.6866969507933","2.6540052840114","4.0919756537676","6.1138975462118"
"9.9162495832425","2.8988857984543","1.5372008353472","-2.6724400931597","4.2318390012144"
"9.926238583168","-2.2029080915451","-0.99008483357728","0.3858951830864","2.445810117283"
"9.9362275833264","-2.7891031551361","-0.69328857243061","3.8737792003155","4.8234749659815"
"9.946216583252","-3.4833495014906","-0.48853969171643","2.6475841641426","4.4025102709858"
"9.9562045831699","-3.6132044667006","-0.15358632847667","2.1108518671989","4.1874253287357"
"9.9661935833283","-4.8065293800831","-0.12114999599755","2.43639559865","5.3901229592889"
"9.9761825832538","-6.3922697067261","-0.033608187586069","2.4047621619701","6.8297234621501"
"9.9861715831794","-8.0091581511497","-0.1193136048317","2.292667529583","8.3316969716637"
"9.9961605833378","-8.9165898871422","-0.00870131470263","2.5228712403774","9.2666353237778"
"10.006148583256","-9.3827246564627","-0.049671292975545","2.6569771313667","9.7517955625077"
"10.016137583181","-9.7457402694225","-0.30405828371644","2.6899074804783","10.114717351092"
"10.026125666685","-10.044590291977","-0.64248533159494","2.4336310350895","10.355150484177"
"10.036114666611","-10.220583297014","-1.0655101878941","2.2367260479927","10.516585867356"
"10.046103666537","-10.411408349276","-1.4031292967498","2.1288284008205","10.719053409649"
"10.056091666687","-10.460493385792","-1.4673956054449","1.9655415415764","10.744232187026"
"10.066080666613","-10.386144869328","-1.375466119498","1.7093982665241","10.615364088252"
"10.076069666538","-10.177695139647","-1.1618703284115","1.3943820083141","10.338264951177"
"10.086058666697","-9.807557618022","-1.0109994468838","1.4141912055016","9.9604338800144"
"10.096047666622","-9.5275841617584","-1.0727092798054","1.3753971223533","9.685932190685"
"10.10603566654","-9.5454935985804","-1.0839949907362","1.3930125904083","9.7073156566332"
"10.116024666466","-9.7810516047478","-1.0921215241402","1.5472445976734","9.9627137750343"
"10.126013666624","-9.9174589598179","-1.1023807563633","1.6703344805539","10.117373810856"
"10.13600266655","-10.012320678234","-1.1531562229246","1.6862375915051","10.218597352537"
"10.145991666475","-10.062871026993","-1.2421629050374","1.6233121955395","10.26837301975"
"10.155979666626","-9.9105627536774","-1.3661832261086","1.4164458918571","10.104060058533"
"10.165968666552","-9.2290001875162","-1.3487605699897","1.0874908947945","9.3902202307823"
"10.175957666477","-8.7891930913925","-1.5375749109685","0.67478388905525","8.9481498144337"
"10.185946666636","-8.0850064784288","-1.6991885894537","0.12265470385551","8.2625429375673"
"10.195935666561","-6.754702937007","-1.9651424691081","-0.57299329318106","7.0580534147265"
"10.205923666479","-1.3377335983515","-2.7009309437871","-2.5143962860107","3.9251430326002"
"10.215912666637","21.189607858658","-6.1811384439468","-6.1528180396557","22.91425590099"
"10.225901666563","50.68134042263","-9.4302005392313","-11.943970588446","52.916777893805"
"10.235890666489","37.400311589241","0.52728911675513","-10.597267946005","38.876257905107"
"10.245879666647","14.381190644503","5.6758700144291","-8.2571140086651","17.52752339968"
"10.255867666565","1.7864296317101","0.42691332779825","-13.557461800575","13.681314128861"
"10.26585666649","27.311906940937","0.30893836989999","-1.4143660372496","27.350249266764"
"10.275845666649","37.319638724327","5.9470089125633","19.709490466118","42.621430806044"
"10.285834666574","20.627206285","8.8663055866957","1.0805783164501","22.478003990092"
"10.2958236665","13.010064182281","8.4214716392756","-1.9986344432831","15.626179771015"
"10.305811666651","9.1078283375502","4.5567182010412","1.1067527925968","10.244077290508"
"10.315800666576","6.8369948959351","2.7962162929773","4.0553785157204","8.4267087092126"
"10.325789666502","5.6738919013739","2.0475753459334","-3.0774048006535","6.7717083821467"
"10.33577866666","1.1659652066231","0.29015192382038","2.0079619216919","2.3399944617278"
"10.345767666586","-0.88832069635391","-0.072898260802031","3.852311732769","3.9540780850191"
"10.355755666504","-1.330183673501","-0.14826477751136","2.0678619682789","2.4632141947775"
"10.365744666662","-1.5222114980221","0.089981193691492","1.3057510828972","2.0075383808077"
"10.375733666588","-2.5378529763222","0.021245273351669","1.1381581878662","2.7814660076431"
"10.385722666513","-4.1627819269896","-0.14671921223402","1.3978634405136","4.39366613402"
"10.395710666664","-6.0222438669205","-0.074317672401667","1.9109987139702","6.3186122205662"
"10.405699666589","-7.2227690416574","0.022672432512045","2.5204200875759","7.6499296785119"
"10.415688666515","-8.0676952117682","0.033141214326024","3.039125418663","8.6211998979514"
"10.425677666673","-8.8074428361654","0.0020003324747086","3.3943800222874","9.438901898492"
"10.435666666599","-9.5210510677099","-0.22310709133744","3.2810492885113","10.073007229313"
"10.445654666517","-9.931377671957","-0.56754544235766","2.973902066946","10.382603902489"
"10.455643666675","-10.314427599907","-1.0093881735206","2.8158869111538","10.739436684248"
"10.465632666601","-10.608052550554","-1.5006069132686","2.6779078245163","11.043269006054"
"10.475621666526","-10.8744739151","-1.8545966179669","2.367070863694","11.282585520142"
"10.485610666685","-10.903080832958","-1.8282319611311","2.1455749726295","11.26157607606"
"10.495598666603","-10.668630874157","-1.6032167771459","1.9167664074898","10.957371136565"
"10.505587666528","-10.379449807405","-1.3372061794996","2.2252177043259","10.699191207871"
"10.515576666687","-9.8826832294464","-1.2440332831442","1.8978822398186","10.139871972534"
"10.525565666612","-9.2994796013832","-1.2179485617578","1.6545855899155","9.5237268456202"
"10.535554666538","-9.2864268618822","-1.1803764005005","1.6309872508049","9.5021645807802"
"10.545542666689","-9.6635336798429","-1.205310536027","1.7079235987365","9.8870450433301"
"10.555531666614","-10.025951707363","-1.3032660162449","1.7768904840946","10.265259360578"
"10.56552066654","-10.10422721386","-1.3746808384359","1.7884178312123","10.352950948201"
"10.575509666465","-10.081678011417","-1.4327628394961","1.8240646505356","10.345059339099"
"10.585498666624","-10.042523885965","-1.486335760206","1.8566862666607","10.320308323159"
"10.595486666542","-10.043730751276","-1.5583050446212","1.9893935036659","10.356762454003"
"10.605475666467","-10.041458523273","-1.6338105788827","1.9945298440754","10.367177802141"
"10.615464666625","-9.9208795809746","-1.7685641951859","1.8712236142159","10.249543833122"
"10.625453666551","-9.4191048628092","-1.9115835817158","1.6325636601448","9.7487923514098"
"10.635442666477","-8.4833533072472","-1.8735151380301","1.2207979830354","8.7731231624429"
"10.645430666627","-6.0264450913668","-2.5401450848579","0.069557307958603","6.5402764246228"
"10.655419666553","1.5592752438784","-4.5122027635574","-3.062156431675","5.6716941981806"
"10.665408666478","28.099721016884","-10.518560914993","-14.510617593527","33.328553342362"
"10.675397666637","57.220651230812","-8.1303323400021","-29.199231448174","64.752608815407"
"10.685386666562","38.861481664181","2.9837084323168","-23.588042163849","45.557798523064"
"10.69537466648","24.687894072533","12.156988162994","-4.4761207652092","27.880461474598"
"10.705363666639","0.46199786424637","3.9769734933972","-0.32284348726273","4.0167135958418"
"10.715352666564","18.097114902735","1.9525393804908","-0.23489785552025","18.203657732381"
"10.72534166649","37.521026186943","9.8439267146587","21.685332462788","44.440791434295"
"10.735330666648","19.250266520977","10.508746948242","2.7201644825935","22.09990539263"
"10.745318666566","11.817866027355","7.5198204606771","-0.62770327806473","14.021543018036"
"10.755307666492","6.5390968000889","4.7627963000536","-1.3033303356171","8.1940640417608"
"10.76529666665","3.6726595401764","2.3040277925134","0.86585569381714","4.4211625449918"
"10.775285666576","3.4410203379393","3.1684430247545","2.3540352272987","5.2365192655609"
"10.785274666501","-0.37576897501945","0.93965749561787","-4.8375804340839","4.9423013857807"
"10.795262666652","-4.0481899487972","-1.6224988478422","2.6125464785099","5.083870914487"
"10.805251666578","-3.5847355431318","-0.78646804690361","5.6065641367435","6.7009269748604"
"10.815240666503","-4.9650906658173","-0.14888363219798","3.9157399892807","6.3251333044746"
"10.825229666661","-5.2289614748955","-0.12953322216868","3.8881341147423","6.5173924122926"
"10.835218666587","-5.8517718029022","-0.22764972008765","3.6810760223866","6.9170353700763"
"10.845206666505","-7.1073017352819","-0.041791877523065","3.1181528770924","7.7613376348596"
"10.855195666663","-8.5533468174934","-0.17865458451211","3.003735730648","9.0671984416612"
"10.865184666589","-9.4445215398073","-0.43617999516428","2.9515984475613","9.9046036518233"
"10.875173666514","-9.8664747476578","-0.78511434338987","2.8571542203426","10.30179880978"
"10.885162666673","-10.346917068958","-1.2216694374382","2.8453861141205","10.800342179056"
"10.895150666591","-10.805493142605","-1.7011842441559","2.8922644114494","11.314499693454"
"10.905139666516","-11.094960722923","-1.9921200603247","2.8190479159355","11.619540736634"
"10.915128666675","-11.029924482107","-1.9989800137281","2.5958164250851","11.506233879468"
"10.9251176666","-10.779449644089","-1.8946498990059","2.3905988900363","11.202731627701"
"10.935106666526","-10.458837454319","-1.6191644731164","2.2060386908054","10.810901035168"
"10.945094666677","-9.8710811841488","-1.2656488314271","1.7787639319897","10.109604929684"
"10.955083666602","-9.4686103141308","-1.082733380869","1.3268416973948","9.6222347583531"
"10.965072666528","-9.3616343343258","-1.0099797655642","1.3403432106972","9.5108767450188"
"10.975061666686","-9.2718211019039","-0.99814470872283","1.4399902904034","9.4359170959541"
"10.985050666612","-9.3455895745754","-1.1082959458977","1.4559765779972","9.5230369208453"
"10.99503866653","-9.557145345211","-1.1402634778619","1.3952158212662","9.7255259567977"
"11.005027666688","-9.6535793799162","-1.0528348130733","1.186762656346","9.7830701515659"
"11.015016666614","-9.6820102965832","-1.0299574356526","1.0539348936081","9.7935138975938"
"11.025006041629","-9.3863832592964","-1.0967229904979","0.91870867609978","9.494788972896"
"11.034995041555","-8.9756058347225","-1.0861333175004","0.66114240802824","9.0652244852173"
"11.044983041473","-8.4323889756203","-1.2150323360413","0.15422148227692","8.5208727064418"
"11.054972041631","-7.7606924164295","-1.5945105654001","-0.74699349403381","7.9579400604508"
"11.064961041557","-5.2104006582499","-1.7507198086381","-2.7583935785294","6.1499617886553"
"11.074950041482","8.7277599048615","-1.6956448844075","-9.3137795519829","12.876159911785"
"11.084939041641","36.70394094944","-2.6771196198463","-25.358845696449","44.692474822226"
"11.094927041559","40.230312509537","0.0052624209970236","-20.36943529129","45.093147665628"
"11.104916041484","21.345401072502","3.6045184278488","-7.8546770524979","23.028561649433"
"11.114905041642","11.374932425022","-2.830023432076","-10.228165966272","15.556783065066"
"11.124894041568","25.443403451443","0.25255725078285","-1.8750412613153","25.513650152212"
"11.134883041494","37.665548307896","4.767489567697","23.567076387405","44.685899068524"
"11.144871041644","22.576104311943","6.3597410613298","14.396366508007","27.520577045254"
"11.15486004157","11.105700888634","8.1311532890797","0.18868438661098","13.765458504389"
"11.164849041495","7.8039980649948","8.5985703527927","-1.4103764820099","11.697305661193"
"11.174838041654","6.9547279983759","3.3580199888349","0.89444039225578","7.7746101762151"
"11.184827041579","9.5214247047901","2.3695149998367","-4.4385711157322","10.769078107844"
"11.194815041497","-1.0414522576332","0.76886873178184","0.83976073980331","1.5430424594794"
"11.204804041656","-2.129156575799","0.10216350205243","4.3918834376335","4.8818424017147"
"11.214793041581","-2.0695114678144","-0.60159575253725","2.5576528179646","3.3446050741647"
"11.224782041507","-2.5493936258554","-0.41609210506082","2.9899444878101","3.951241392225"
"11.234771041665","-3.2195587992668","-0.49997640699148","2.4235937047005","4.0607070461864"
"11.244759041583","-4.3693646407127","-0.46443103685975","2.8694637787342","5.2479392078202"
"11.254748041509","-6.3094766414166","-0.22986815370619","3.3687201011181","7.1561588842302"
"11.264737041667","-7.7901559513807","-0.054996132999659","3.4004774987698","8.5001647949388"
"11.274726041593","-8.5236417925358","-0.07047195866704","3.2156212842464","9.110304931676"
"11.284715041518","-8.776153215766","-0.16707417391241","3.152956674099","9.3268384158263"
"11.294703041669","-9.0763901978731","-0.35399906024337","2.98298864007","9.5605646059993"
"11.304692041595","-9.530349894762","-0.67688428200781","2.7917706549168","9.9538798886401"
"11.31468104152","-9.8960604894161","-1.0298741128296","2.656181910038","10.297958838414"
"11.324670041678","-10.192010293007","-1.3379154467583","2.4909126985073","10.57694368081"
"11.334659041604","-10.358003389835","-1.4451191756129","2.2745421843231","10.702810182556"
"11.344647041522","-10.352885906696","-1.378211825788","2.0683683371544","10.647058843265"
"11.35463604168","-10.288001693487","-1.2020890125632","1.8902995705605","10.529065927507"
"11.364625041606","-10.292421019077","-1.0617802490294","1.7050843369961","10.486592407805"
"11.374614041531","-10.214538445473","-0.90841633401811","1.7169459986687","10.397592002589"
"11.38460304169","-10.026131801605","-0.80996866442263","1.8357881717384","10.22494432024"
"11.394591041608","-9.9315285301209","-0.77146979257464","1.8530259096622","10.132330906921"
"11.404580041533","-9.9993258261681","-0.79866877399385","1.8387551951408","10.198304244142"
"11.414569041692","-10.059542791843","-0.88730847023427","1.7754859828949","10.253490526535"
"11.424558041617","-10.117879292965","-0.96871121384203","1.6186332535744","10.292223103509"
"11.434546041535","-10.159139585495","-1.0719087959826","1.526288176775","10.328923524891"
"11.444535041694","-10.166150397062","-1.1661781914532","1.5089640462399","10.343479006734"
"11.454524041619","-10.150323153734","-1.2550788196921","1.4598591291904","10.331286059632"
"11.464513041545","-10.026452229023","-1.4067921388149","1.1461559363455","10.189331766761"
"11.47450204147","-9.3705747270584","-1.4138927051425","0.68413468323648","9.5013053609411"
"11.484491041629","-8.1584948694706","-1.7181794688106","-0.18904274784029","8.3395992938948"
"11.494479041547","-1.3746739679575","-3.5129899147153","-3.4315542805195","5.0996462072602"
"11.504468041472","28.150180149078","-6.5942062228918","-15.622602474689","32.863078161027"
"11.514457041631","52.286284174919","-8.1713973355293","-31.818952460289","61.750084881769"
"11.524446041556","35.677375702858","-0.70272714793682","-25.480947253704","43.84800605995"
"11.534435041482","22.345080821514","11.232756206989","4.8744447898865","25.480142482634"
"11.544423041632","4.5878511160612","4.2758094826341","1.1491228866577","6.3758456696793"
"11.554412041558","24.785725007057","2.9697002577782","-2.2218875688314","25.061685260873"
"11.564401041484","37.168331494331","10.561142678261","28.5777262187","48.059432337202"
"11.574390041642","17.417187802792","7.6887979763746","7.5688967263699","20.488148841066"
"11.58437804156","7.634439920783","4.9603450655937","0.38968768715858","9.1127137871947"
"11.594367041485","5.5943498879671","2.7525627350807","-0.72304329872131","6.2766347584815"
"11.604356041644","4.8694424968958","2.7652891999483","2.4414183568954","6.1089130116013"
"11.614345041569","5.5522014033794","4.1810579842329","-1.7252443671227","7.1613304921289"
"11.624334041495","-3.624132912755","-2.9872158846259","0.69074912667274","4.7470972674546"
"11.634323041653","-4.1557559126616","-2.1712524354458","5.3147412979603","7.0873915800028"
"11.644311041571","-3.9680041569471","-1.1997538539022","3.8519246470928","5.6587798849561"
"11.654300041497","-4.6058242875338","-1.1480364008993","4.3862806355953","6.4630536714176"
"11.664289041655","-5.0699569702148","-0.93665984742343","3.9841196680069","6.5157505230483"
"11.674278041581","-6.1741907823086","-0.60409916482866","3.6101259076595","7.1776442295816"
"11.684266041499","-7.6355918222666","-0.37804646551609","3.2372539356351","8.3021078438032"
"11.694255041657","-8.964645228982","-0.42199647724628","3.0059451010823","9.4645998890095"
"11.704244041583","-9.6703152805567","-0.48444729857147","2.8984110045433","10.106951724517"
"11.714233041508","-10.157767828703","-0.68191047549248","2.7679303872585","10.550198471457"
"11.724222041667","-10.478818559647","-0.99232453644276","2.7581772315502","10.881079359708"
"11.734210041584","-10.611249808073","-1.2456572011113","2.6823002529144","11.015671518287"
"11.74419904151","-10.586400310993","-1.4006440839171","2.5245575773716","10.973015372079"
"11.754188041668","-10.4411531353","-1.3853438208997","2.2572006583214","10.771806306688"
"11.764177041594","-10.283603417873","-1.2831776145101","2.2890970735252","10.613152663488"
"11.774166041519","-10.080258307457","-1.1178255917877","2.2889030921459","10.397125514485"
"11.78415404167","-9.7221835917234","-0.98164883628488","1.9244999349117","9.9593266955368"
"11.794143041596","-9.4644465118647","-0.89092044152319","1.6286740922928","9.6447947779088"
"11.804132041521","-9.4047148650885","-0.83377648003399","1.653777358532","9.5853442538005"
"11.81412104168","-9.4110789746046","-0.90570666119456","1.7444010150433","9.6141378668948"
"11.824110041605","-9.5445978051424","-0.95514406554401","1.8153873825073","9.7625446885758"
"11.834099041531","-9.7175116664171","-0.94070743627846","1.7417440402508","9.9170880690539"
"11.844087041682","-9.7047588890791","-1.0083037342876","1.5106340110302","9.8732485348551"
"11.854076041607","-9.6151204884052","-1.086587426886","1.1944224357605","9.7497620072423"
"11.864065041533","-9.3866604173183","-1.1938288702816","0.82388554930687","9.4980739394851"
"11.874054041691","-9.1695936459303","-1.4573737701774","0.4173205319792","9.2940595201396"
"11.884042041609","-8.3238184601068","-1.757225420773","-0.10401604615152","8.5079148017645"
"11.894031041535","-6.7279560184479","-1.8563965371251","-1.1008799222857","7.0656589850141"
"11.904020041693","-1.2104420524836","-2.5178160300851","-3.6323979520798","4.5824537538362"
"11.914009041619","21.813515124321","-4.7908857393265","-11.448878653049","25.096988876328"
"11.923998041544","47.658138141632","-7.6691829067469","-25.184399864674","54.446014492594"
"11.933986041695","31.374774570465","-3.4952506318688","-17.831586992741","36.256844195362"
"11.94397504162","12.254488145113","3.3261190420389","-6.3972351622581","14.218303882734"
"11.953964041546","-0.17659936130047","-0.60862191304564","-11.846156026125","11.86309489816"
"11.963953041472","2.9833061438799","-7.6186132621765","-8.5259572899342","11.816739452848"
"11.97394204163","44.149355006218","-3.4743234470487","15.039921587706","46.770030064606"
"11.983930041548","40.302158417702","9.5891138273478","20.502747130394","46.223129675653"
"11.993919041473","14.752762488127","15.160833821297","7.2356487035751","22.357314135414"
"12.003908041632","7.9943763899803","11.144586042166","0.3277282512188","13.719302377401"
"12.013897041557","8.5778869968653","5.5488024169207","1.3560043931007","10.305731488212"
"12.023885541596","7.3919886320829","0.4442302954942","1.3404823744297","7.5256713646315"
"12.033873541513","7.7528349280357","2.3863099573553","-2.4727500772476","8.4802958426267"
"12.043862541672","-1.9623986631632","-0.49780811324716","-2.3000361907482","3.064145543141"
"12.053851541597","-3.1090604567528","-0.66566552169621","3.8138826620579","4.9653870413558"
"12.063840541523","-3.5716588300467","-0.34785261332989","3.2587374830246","4.8473826156102"
"12.073829541681","-3.9194342601299","-0.26863336622715","3.3715676951408","5.1770259346316"
"12.083817541599","-5.1679112809896","-0.012283538281918","2.8930233800411","5.9225874557458"
"12.093806541525","-6.7808101701736","-0.04940824136138","3.1268851089478","7.4672108730639"
"12.103795541683","-8.1169626814127","-0.14155970223248","3.1336702179909","8.7020119142567"
"12.113784541609","-8.9459815013409","-0.24104130573571","3.1015023458004","9.4714308704867"
"12.123773541534","-9.329181702733","-0.36500468954444","2.9312898981571","9.7856691203533"
"12.133761541685","-9.4770759129524","-0.53766236968338","2.6714057207108","9.8610576110417"
"12.143750541611","-9.8157302713394","-0.67645341530442","2.5797038376331","10.171579123846"
"12.153739541536","-10.05262670517","-0.79483285434544","2.4552400052547","10.378596553641"
"12.163728541695","-10.243489179611","-1.0276120443642","2.2223174853623","10.532034565661"
"12.17371754162","-10.341469802856","-1.0895067223907","1.9879283376038","10.58701476607"
"12.183705541538","-10.095360496044","-0.89684367097914","1.9580126667023","10.322521286887"
"12.193694541696","-9.9097184157372","-0.77797021530569","1.8359331826866","10.108333561294"
"12.203683541622","-9.9063819944859","-0.74749598912895","1.7749584178627","10.091859682912"
"12.213672541548","-10.022630488873","-0.71770252503455","1.8552221238613","10.218124483475"
"12.223661541473","-10.108386923075","-0.74712710291147","1.8506297206879","10.303519566516"
"12.233650541632","-10.14606287241","-0.7957151991874","1.7796386754513","10.331644027176"
"12.243638541549","-10.185559644699","-0.84883503377438","1.5700440609455","10.340753577162"
"12.253627541475","-10.106692399979","-0.86054729908705","1.3697979748249","10.235336800203"
"12.263616541633","-10.048318476677","-0.91998600035906","1.0494864050299","10.144776989364"
"12.273605541559","-9.9920670926571","-1.0555303063989","0.79847238063812","10.079340611098"
"12.283593541477","-9.9534602665901","-1.2307465088367","0.42055864691734","10.038076400541"
"12.293582541635","-9.7072024405003","-1.4467540571094","0.19421413499862","9.8163432933476"
"12.303571541561","-9.2011732882261","-1.7968391373754","-0.39716152511537","9.3833873437369"
"12.313560541486","-8.2383269047737","-2.1308791655302","-1.1005559134483","8.5803204792499"
"12.323549541645","-6.6869284451008","-2.2720169180632","-2.394490942955","7.4572555127042"
"12.33353854157","-3.2472985750437","-3.198659388721","-4.8449128425121","6.6520335516346"
"12.343526541488","10.426917504072","-5.7769315356016","-10.041701767445","15.586190072948"
"12.353515541647","38.646966032982","-7.9583534485102","-23.058904230595","45.701602132547"
"12.363504541572","40.868589892387","-5.4471058881283","-25.614523386955","48.538813445422"
"12.373493541498","19.056088675261","1.6239730770886","-5.6020255279541","19.928735388136"
"12.383482541656","4.7300320118666","0.72588957712054","8.1656121003628","9.4645306003545"
"12.393470541574","12.686013829708","-5.0863139712811","-1.5235317993164","13.752333832682"
"12.4034595415","36.644547271729","-3.2315207406878","12.551820230484","38.869187824623"
"12.413448541658","30.494962742329","6.003478397727","20.956781086922","37.485612960883"
"12.423437541584","15.128395807743","11.394924055338","-1.680322548151","19.014103655142"
"12.433426541509","12.3245342803","10.741984194517","-2.1213324165344","16.48588550497"
"12.44341454166","9.3236186617613","3.477474219203","0.72761348247528","9.9775805321252"
"12.453403541585","8.858995397687","0.86005715623498","3.013100631237","9.3968225045592"
"12.463392541511","3.7636428004503","2.2752384415269","-4.7473555576801","6.4714064843911"
"12.473381541669","-2.4622087168694","0.50286339662969","3.4661265277863","4.2812821055989"
"12.483370541595","-2.7305403667688","-0.45256915591657","4.4833479237556","5.2688782621052"
"12.493358541513","-3.4171654522419","-0.31039969872683","3.5233298385143","4.918050513357"
"12.503347541671","-3.8457716220617","-0.38107218034565","2.5812779080868","4.6473832437691"
"12.513336541597","-5.0347871375084","-0.10966877792962","2.8287437689304","5.7760626789479"
"12.523325541522","-6.8644206762314","0.31712695688009","3.0854400444031","7.532647674932"
"12.533314541681","-8.1587217414379","0.52557138752192","2.9599611353874","8.694960359921"
"12.543302541599","-8.7525690561533","0.5896593561396","2.6530138885975","9.1648047405336"
"12.553291541524","-8.9159513711929","0.54496060844511","2.5974010205269","9.3025621728462"
"12.563280541683","-9.0552998757362","0.41224898602813","2.7034344291687","9.4592263308795"
"12.573269541608","-9.2023515021801","0.23621026307344","2.5887050414085","9.5624506403679"
"12.583258541534","-9.3785795652866","0.043525407942943","2.3616693520546","9.6714596236547"
"12.593246541684","-9.5506064039469","-0.13769668439403","2.2390930008888","9.8105341611267"
"12.60323554161","-9.7181624615192","-0.22633458992466","2.1311415593326","9.9516668614355"
"12.613224541536","-9.9124432182312","-0.23862176444381","1.9161885564029","10.09877465264"
"12.623213541694","-10.066696275473","-0.15732249828056","1.6591521191597","10.203720401187"
"12.63320254162","-10.105130023956","-0.0050890693254769","1.6983519990742","10.2468569919"
"12.643190541537","-10.090744704008","0.072236794531345","1.7579055981338","10.242977053958"
"12.653179541696","-10.098596345186","0.083260988742113","1.6458754312992","10.232178969829"
"12.663168541621","-10.108947086334","-0.020709101948887","1.6159376871586","10.237308956459"
"12.673157541547","-10.125384778976","-0.087278354801238","1.5410547351837","10.24235735221"
"12.683146541473","-10.132878570557","-0.15170381739736","1.4128662264347","10.23202976675"
"12.693134541623","-10.20140676856","-0.22507420431823","1.2509521472454","10.280284029626"
"12.703123541549","-10.280590932369","-0.29453375414014","1.0997548449039","10.343440470652"
"12.713112541474","-10.35076921463","-0.37908843934536","0.91137502513826","10.397727435157"
"12.723101541633","-10.211021929979","-0.39648503880948","0.6450906316191","10.239058118964"
"12.733090541558","-9.2970652860403","-0.44729007035494","0.2164148433879","9.3103344045406"
"12.743078541476","-8.3898463886976","-0.54539695691317","-0.48165035605431","8.4213399962263"
"12.753067541635","-6.3459977656603","-0.71131451502442","-2.2871500968933","6.7829721764702"
"12.76305654156","4.284011079669","-0.4154210639745","-9.859172744751","10.757723402373"
"12.773045541486","38.353108363152","0.84150496423244","-31.865220308304","49.870445326037"
"12.783034541644","55.278154735565","1.6576663416624","-28.882518181801","62.390881586907"
"12.793022541562","33.488634245396","2.9504652571678","11.667386763096","35.585415309299"
"12.803011541488","12.072058525085","-1.8573315069079","-4.6594935411215","13.072687459715"
"12.813000541646","22.282139053345","-1.9850621786714","3.8428304725885","22.698051429293"
"12.822989541572","29.965130159855","5.861322644949","15.209323611259","34.111400636111"
"12.832978541497","17.877939040661","5.293553327322","6.4300719559193","19.722784705236"
"12.842966541648","10.520788704157","2.8981051951647","-1.0648001897335","10.964479382251"
"12.852955541573","8.058750141263","1.7024652229249","-2.9108304905891","8.7358328635293"
"12.862944541499","5.9341035228968","2.9528842502832","2.0836389255524","6.9479969191202"
"12.872933541657","5.5789804816246","1.9958070221543","-1.5537303292751","6.1255486954344"
"12.882922541583","-1.0739820724726","-2.7420187434554","1.2383174836636","3.1946102222024"
"12.892911541509","-2.4579765021801","-1.761852030158","6.0220298588276","6.7387398437729"
"12.902899541659","-3.3967089682817","-1.7267530949414","4.0840123307705","5.5855585919387"
"12.912888541585","-3.7987980151176","-1.0480349068344","2.943369076252","4.9186039731454"
"12.92287754151","-4.7056608170271","-0.88179754257202","3.0448744010925","5.6738056672236"
"12.932866541669","-5.8466671836376","-0.79082473419607","3.5052128255367","6.8626115924441"
"12.942854541587","-6.9123035252094","-0.74291264913976","3.3615935146809","7.7221868785221"
"12.952843541512","-7.9788134407997","-0.73528948791325","3.1342958700657","8.6038320041266"
"12.962832541671","-8.6213715702295","-0.85016505606472","3.1416785645485","9.2152575969128"
"12.972821541596","-9.3882397502661","-1.0338403522968","3.1523871552944","9.9571791316305"
"12.982810541522","-10.084077708721","-1.4531618745625","3.2396299517155","10.690907580428"
"12.99279954168","-10.547628593445","-1.7128424227238","3.0965061923862","11.1254055526"
"13.002787541598","-10.828223608732","-1.8346823170781","2.8698953032494","11.351334052741"
"13.012776541524","-10.888203177452","-1.6859608720243","2.5380283927917","11.306503465621"
"13.022765541682","-10.846727707386","-1.3076441189647","2.2178126442432","11.148099749509"
