Time (s),Linear Acceleration x (m/s^2),Linear Acceleration y (m/s^2),Linear Acceleration z (m/s^2),Absolute acceleration (m/s^2)
0.0174177084118128,0.107928454689682,10.3791621243954,-2.257331635952,10.6223444243954
0.0274077083449811,-0.163088053911924,9.76673352777958,-0.943264642953873,9.81353298779952
0.0373967085033655,-0.568856388106942,9.21388338088989,0.465100396871567,9.24313598980882
0.0473867084365338,-0.903248272463679,8.8582796984911,1.80045768678188,9.08441657677036
0.0573757083620876,-1.1959012696892,8.68629671394825,2.35302833676338,9.07847304359075
0.0673657082952559,-1.72796712309122,8.64430084168911,2.36721017360687,9.12762244103792
0.0773547084536403,-1.96026442945004,8.831994125247,2.01522884130478,9.2686516896791
0.0873447083868086,-1.7197889149189,9.16395400643349,1.60265515208244,9.460667549407
0.0973337083123624,-1.39526142954826,9.65872726857662,1.59960758328438,9.88921186576724
0.107322708470747,-0.958554527163506,9.78023884177208,2.08520714879036,10.0458940586201
0.117312708403915,-0.033802095875144,8.57423541069031,2.53041297912598,8.93989067631984
0.127301708329469,1.26256574079394,5.02278514266014,2.6733651226759,5.82832084894903
0.137291708495468,3.35685229986906,-2.11093255877495,2.93346038460732,4.93251289495454
0.147280708421022,4.45081898599863,-15.0850258398056,3.6521632951498,16.1463956029873
0.15727070835419,1.07625049978495,-36.7466864347458,5.56145345270634,37.1807348445191
0.167259708279744,-2.04019893720746,-51.3068007087708,7.07272422552109,51.8321679909607
0.177249708445743,-0.215669725388289,-24.2038545441628,-0.68243906378746,24.2144339455049
0.187238708371297,0.858302041366696,-6.7098302346468,-7.68075630068779,10.2348679289256
0.19722770829685,-0.350474066287279,-7.61754497587681,-8.10378364205361,11.1274944550811
0.207217708462849,0.0386400090157986,-14.9666197228432,-2.6409738868475,15.1978926844976
0.217206708388403,1.70000486075878,-20.715749502182,3.11519535541534,21.0175340148686
0.227196708321571,4.13684777140617,-22.10282599926,7.15138564825058,23.5964137810675
0.237185708479956,5.18109850645065,-19.7099442100525,7.45828494787216,21.7014215400877
0.247175708413124,3.51368193268776,-15.3884542322159,3.95556362092495,16.2725833210429
0.257164708338678,1.84504723772407,-12.1306172204018,1.56516879871488,12.3695524100839
0.267154708504677,0.763979216963053,-10.0278871357441,0.944806699901819,10.1012298435068
0.277143708430231,0.230301578566432,-8.26503347754479,0.6908878518641,8.29705629882548
0.287132708355784,0.564328669756651,-6.2363566249609,0.41797607794404,6.2757720483568
0.297122708288953,0.620048980414867,-3.72499445915222,-0.368520035594702,3.7941865367247
0.307111708447337,0.141539383158088,-1.08300724983215,-1.06680870831013,1.5267674742082
0.317101708380505,-0.272574535757303,1.32170287191868,-1.47810068786144,2.00149369287986
0.327090708306059,-0.350907783508301,3.30054565966129,-1.37636966049671,3.59320627940723
0.337080708472058,-0.121994260847569,4.90115662515164,-0.578497131094337,4.93668692491552
0.347069708397612,0.201516905352473,6.47494173467159,0.966014404892922,6.54970712024557
0.35705970833078,0.55449051015079,8.18321982085705,2.41162270009518,8.54917951676822
0.367048708489165,0.759878418445587,10.0040597319603,3.46000098466873,10.612739191432
0.377037708414719,0.549651062116027,11.9986326992512,3.96225868284702,12.6478771662055
0.387027708347887,0.533349682688713,13.772110748291,3.30098478555679,14.1722262507234
0.397016708506271,1.22776033580303,15.2713064360619,1.94391444504261,15.4434128053329
0.40700670843944,1.8938371360302,16.5288390398026,0.86796887755394,16.6596071104306
0.416995708364993,1.68887030035257,17.1453437304497,0.253139414191246,17.2301820678047
0.426985708298162,1.30481245860457,16.925901235342,-0.602239750251174,16.9867996072676
0.436974708456546,0.821178361549974,15.4945426046848,-2.21160348594189,15.6731099150392
0.446964708389714,0.242240423485637,13.8250280499458,-3.46508572340012,14.2547150120608
0.456953708315268,-0.354250015430152,12.2899620330334,-3.75280907928944,12.8550470956909
0.466942708473653,-0.809498109742999,10.9823737549782,-3.38040342271328,11.5193293113793
0.476932708406821,-1.00231406584382,10.1286580502987,-2.39921783208847,10.4570834171044
0.486921708332375,-1.03443749919534,9.61850602626801,-1.18046045422554,9.74572757679414
0.496911708498374,-0.91288134098053,9.25072083950043,-0.0903623590618372,9.29609346709752
0.506900708423927,-0.747911141440272,8.96959431231022,0.538661878108978,9.01682592833233
0.516890708357096,-0.613826227337122,8.72910534918308,0.731514744758606,8.78118310117167
0.52687970828265,-0.664455878958106,8.56702871739864,0.935912353992462,8.64357649322147
0.536868708441034,-0.771424842104316,8.50697664320469,1.2122364898771,8.62747154167635
0.546858708374202,-0.813355517908931,8.62689485013485,1.1248364764452,8.7378555179482
0.556847708299756,-0.707381166145206,8.96721274137497,0.918247184604406,9.04181786784762
0.566837708465755,-0.111932591423392,8.87138915598393,1.30170071661472,8.96707863339935
0.576826708391309,0.850233468487859,7.31205719411373,2.08190507993102,7.65005922348121
0.586816708324477,1.89959635108709,3.51455316781998,2.86748391151428,4.91762282503346
0.596805708482862,3.56323094576597,-4.36115164160729,4.12030132055283,6.9780471040333
0.60679570841603,2.8492622333765,-19.5435230970383,5.86329900383949,20.6020840093287
0.616784708341584,-0.891592798233032,-43.7985641670227,8.50214918196202,44.6250568797733
0.626774708507583,-3.48781063467264,-47.525710401535,7.15948871970177,48.1883414419032
0.636763708433136,-1.78021491855383,-17.1165824460983,-3.37706115424633,17.5371349378923
0.64675270835869,-0.0388994792103767,-4.3018252068758,-8.66982452273369,9.67848492972889
0.656742708291858,0.563620279580355,-7.62245312869549,-8.52452589154244,11.4493231762533
0.666731708450243,2.65298962265253,-15.233041087389,-2.19260529756546,15.6170231702106
0.676721708383411,5.89755199313164,-20.7685124373436,2.52744405537844,21.7370697616964
0.686710708308965,7.71887839257717,-22.6158981227875,5.65480425059795,24.5568064424566
0.696700708474964,7.54938983023167,-18.8887074494362,5.61762706875801,21.1029450504624
0.706689708400518,4.69848599106073,-13.4244867610931,2.02046575382352,14.3657543230188
0.716679708333686,1.35110618054867,-10.180486600399,-0.0181146740913391,10.2697674498227
0.72666870849207,-1.21384622834623,-8.32629884898663,-0.619897098988295,8.43711725662507
0.736658708425239,-2.47995267748833,-7.06997837305069,-0.684982017874718,7.52356031695086
0.746647708350793,-2.10513358265162,-5.7360507273674,0.229257558211684,6.11444391385978
0.756636708509177,-1.33138439923525,-3.96400875449181,1.65145192086697,4.49591406403079
0.766626708442345,-0.980123516991735,-1.7151620131731,2.49522385060787,3.18254063676093
0.776615708367899,-0.849241415262222,0.582131833434105,1.90731964588165,2.16747703204902
0.786605708301067,-0.731338378116489,2.65347055613995,0.936109989881516,2.90724332121748
0.796594708459452,-0.538145057335496,4.36582999885082,0.310325110182166,4.40980423098463
0.80658470839262,0.0882976706698537,5.94994070649147,0.138562638759613,5.95220887522187
0.816573708318174,0.964028982818127,7.61724852204323,0.414703245162964,7.68920058964726
0.826563708484173,1.39435598820448,9.39438575863838,1.01122507631779,9.55098364352716
0.836552708409727,1.15467978805304,11.3308093357086,1.9075745844841,11.5481325940816
0.84654170833528,1.08124212160707,13.2761569333076,2.80505085110664,13.6122642393044
0.85653204168193,1.16016944646835,15.0116982471943,2.67481640160084,15.2922110955744
0.866521041840315,1.20808840200305,16.2320834898949,1.42475361585617,16.3392146346104
0.876511041773483,1.31482245326042,16.9459197628498,-0.093982333727181,16.9971111478273
0.886500041699037,1.19916657418013,17.2263838005066,-1.02560564540327,17.298501850012
0.896490041632205,0.922172785922885,16.7839413642883,-1.92445023357868,16.9190602300626
0.90647904179059,0.350328580252826,15.6184018349648,-3.10923821210861,15.9287340442425
0.916469041723758,-0.0852736369147897,13.7965731596947,-4.33686406195164,14.4624027200119
0.926458041649312,-0.793754335418344,11.9357587587833,-5.08262437820435,12.9971325169356
0.936447041807696,-1.58000771641731,10.6855936467648,-4.60283752977848,11.7415692858006
0.946437041740865,-1.9846139895916,9.80670450925827,-3.43379200994968,10.5783303780504
0.956426041666418,-2.03189866840839,9.08212222337723,-1.94048271417618,9.50678859778942
0.966416041832417,-1.8181706571579,8.46618646681309,-0.340536650195718,8.66591155271767
0.976405041757971,-1.49461030125618,7.90355509757996,1.35435138523579,8.15685667446678
0.986395041691139,-1.24941374480724,7.46617167234421,2.56451803386211,7.99259074972767
0.996384041616693,-1.13336354412138,7.32147238075733,2.64750288784504,7.86751182309144
1.00637404178269,-1.13274651668966,7.27254521906376,2.11565418541431,7.65826489922233
1.01636304170825,-1.16823056414723,7.35068214654923,1.46220152378082,7.58520427983006
1.02635304164141,-0.991128780841827,7.7089831495285,1.71926851272583,7.96031668206598
1.0363420417998,-0.475481251180172,7.15291761875153,2.80206233918667,7.69687379613036
1.04633104172535,0.160597286224365,4.08709849119186,3.58700952529907,5.4402943761925
1.05632104165852,0.895959498882294,-2.26228247344494,4.31130763649941,4.95055945826648
1.06631004181691,1.36762704983354,-13.8960190951824,5.93969112217426,15.1739803963214
1.07630004175007,-0.863852730095387,-33.660245347023,8.81049098968506,34.8049293899643
1.08628904167563,-0.718438324034214,-49.1716220855713,9.60144618988037,50.1054122933726
1.09627904184163,2.54990233361721,-28.1639047336578,0.478311011195183,28.2831453905143
1.10626804176718,2.7448724770546,-8.95262861609459,-9.7673270201683,13.5308743683443
1.11625804170035,1.43906029075384,-8.16938238501549,-13.0118814969063,15.4310972766864
1.1262470416259,4.15927505940199,-12.8598632454872,-7.24065275073052,15.333059184946
1.1362370417919,5.92185886859894,-18.401313958168,-0.374972145706415,19.3343572936038
1.14622604171745,7.39575540840626,-21.2985414862633,4.49724529355764,22.9902214589915
1.15621504164301,7.64811772763729,-19.8278755331039,8.11895073473454,22.7498508558871
1.16620504180901,5.09416795134544,-15.8892121195793,7.77506019473076,18.4083994396359
1.17619404173456,1.94141066730022,-12.3344043803215,4.48582071125507,13.2675994154906
1.18618404166773,-0.0439845103025436,-9.85297703504562,2.34198528528214,10.12758540654
1.19617304182611,-0.845316910296679,-7.92666855633259,1.77133109763265,8.16604242814264
1.20616304175928,-1.03391271159053,-6.54099071323872,1.63422923952341,6.82086799558362
1.21615204168484,-0.651528342962265,-5.01857105433941,0.866469066739082,5.13432695226475
1.226142041618,-0.302243819609284,-3.04986266076565,0.216896617412567,3.0724676920465
1.23613104177639,-0.42111997961998,-1.06724374115467,0.231448583006859,1.17043568248957
1.24612004170194,-0.609126089215279,0.984434888362885,-0.21179258286953,1.17686139377044
1.25611004163511,-0.456829144880176,2.90389510810375,-0.814273896217346,3.0503018940003
1.2660990417935,-0.400059259012342,4.52958419680595,-0.401186748370528,4.56488019708556
1.27608904172666,-0.40912872903049,6.17233312189579,0.752125010490418,6.23143438671829
1.28607804165222,-0.340719741135836,8.0115683734417,2.12428876876831,8.29541563259166
1.29606804181822,0.0543853182345629,10.082597193718,3.3640089994669,10.6291241634531
1.30605704174377,0.373997487947345,12.2527725720406,3.62801780283451,12.7840847541318
1.31604704167694,0.400814207643271,14.0175511336327,2.94185406267643,14.328534368146
1.32603604183532,0.771638046205044,15.4170494556427,1.77458434224129,15.5380175305543
1.33602604176849,1.27381841495633,16.4334124803543,0.803620854020119,16.5022866773294
1.34601504169405,1.01525965511799,16.8733148860931,0.14310943365097,16.9044369241499
1.3560040416196,0.752302619665861,16.3973655653,-0.80990778028965,16.4345826635852
1.3659940417856,0.645114605203271,15.1910077929497,-2.37333513200283,15.3888144529754
1.37598304171115,0.375055103078485,13.6258157515526,-3.57623252213001,14.0923014542673
1.38597304164432,-0.0584791000932455,12.2884230458736,-4.074938621521,12.9465781397507
1.3959620418027,-0.645275915265083,11.3409098160267,-4.15873448431492,12.0965982397161
1.40595204173587,-1.31264085710049,10.6735822963715,-3.54649182915688,11.3236915072524
1.41594104166143,-1.90688256651163,10.0496469640732,-2.33694250032306,10.4925166416255
1.42593104182743,-2.38650642380118,9.48780438423157,-1.01602512873709,9.83596218000625
1.43592004175298,-2.54954039096832,9.04984442353249,0.100241156816483,9.40265327366913
1.44590904167853,-2.50959893792868,8.69248950004578,0.914898557290435,9.09365162670041
1.45589904184453,-2.43942328691483,8.52385755479336,1.39406333506107,8.97498446624348
1.46588804177009,-2.32961491584778,8.57463536024094,1.61994770765305,9.03192713615234
1.47587804170325,-2.10195576712489,8.84011064529419,1.4885900080204,9.2076964806607
1.48586704162881,-1.64139310196042,9.15895931482315,1.5017117446661,9.42527693013935
1.49585704179481,-0.959753498733044,8.91052223145962,2.15421949625015,9.21733122187169
1.50584604172036,-0.127790167182684,7.20255872547627,2.96369750618935,7.78952408231439
1.51583604165353,0.838330949395895,2.9570726108551,3.56206237971783,4.70482365276165
1.52582504181191,2.81502590864897,-5.09696876764298,4.32419197618961,7.25273036391369
1.53581504174508,4.05874154180288,-19.3728241610527,5.70980199158192,20.6005227521366
1.54580404167064,3.05879662156105,-41.37794318676,7.11555624961853,42.0965742059885
1.55579304182902,1.85243154019117,-47.5935895586014,5.56246443629265,47.9533344021949
1.56578304176219,2.40152163505554,-20.1696289157867,-3.95158400595188,20.692903443458
1.57577204168774,1.34814631998539,-8.46839379072189,-11.3000553202629,14.1852896387712
1.58576204162091,0.503461786061525,-9.26024946212769,-10.0129170942307,13.6478643972893
1.59575104177929,1.70041855126619,-15.6399640274048,-3.30920655548573,16.0764033930129
1.60574104171246,3.50817853331566,-20.4953702831268,1.39039917737246,20.8398831459424
1.61573004163802,4.69377927482128,-21.5810578966141,5.12639663457871,22.6727494202351
1.62572004180402,4.05102731019259,-19.2828004288673,6.9155832284689,20.8821097123191
1.63570904172957,1.81529411941767,-14.5192001366615,5.84267762839794,15.7556131971373
1.64569904166274,0.54887572132051,-11.0154760122299,3.74180403470993,11.6465906499559
1.65568804182112,0.785426950156689,-9.23309908568859,2.78106323361397,9.67477787494552
1.66567704174668,1.13463947966695,-7.99822970509529,2.46317643105984,8.44549129978927
1.67566704167984,1.0079792869091,-6.40050492525101,1.81530786037445,6.72888015712403
1.68565604183823,0.737589270919561,-4.1996024286747,0.558435553461313,4.30029635709863
1.6956460417714,-0.326064645275474,-1.66735225439072,-0.291423547044396,1.72374864086744
1.70563504169695,-1.05296162456274,0.582756316065788,-0.813207948803902,1.45246007680563
1.71562504163012,-1.03649761945009,2.57670070767403,-1.0483893211931,2.96864178048569
1.7256140417885,-0.751041521430016,4.34056827306748,-1.07466385781765,4.53425834148997
1.73560404172167,-0.188863055594265,5.87963495492935,-0.76322887301445,5.93197224956409
1.74559304164723,0.504110059551895,7.43213561475277,0.298837779946625,7.45520427399152
1.75558204180561,1.07791812568903,9.1071126383543,1.98000112116337,9.38199405953606
1.76557204173878,1.37918509483337,10.9809751009941,3.67537206351757,11.6615747435648
1.77556104166433,1.56300942197442,12.8187011861801,4.39519003808498,13.6411067741821
1.78555104183033,2.17981889873743,14.5973189377785,3.73838926076889,15.2252712576017
1.79554004175588,2.67975291341543,16.3909874224663,2.53882829189301,16.8015235456825
1.80553004168905,2.43984019339085,17.3495074510574,1.50411787390709,17.5846694464863
1.81551904161461,1.73839607074857,17.4850400626659,0.468260305300355,17.5774831703901
1.82550904178061,1.16849822044373,16.6192323160172,-1.2685762399435,16.7084875599642
1.83549804170616,0.586683854274452,14.6074989402294,-3.34493245840073,14.9970595912976
1.84548704163171,0.246520146802068,12.5115773534775,-4.49055169343948,13.2953147599552
1.85547704179771,-0.174161145463586,11.1125865697861,-4.71765053272247,12.0737789827575
1.86546608339995,-0.523416286557913,10.3220161163807,-3.92006634414196,11.053727943926
1.87545608333312,-0.859959361553192,9.76275566697121,-2.35005151927471,10.0783763801392
1.8854450834915,-1.27142968118191,9.35121225714684,-0.756297583580017,9.46750707141709
1.89543508342467,-1.58289419442415,9.0283471351862,0.594569299668074,9.18532082598503
1.90542408335023,-1.85253737479448,8.66796452343464,1.44290863573551,8.98039470377622
1.91541408328339,-2.38499550327659,8.31793616116047,2.02507204413414,8.88691072959125
1.92540308344178,-3.12566187143326,8.21141392529011,2.22248632371426,9.06292040382552
1.93539308337495,-3.66608610033989,8.40086722075939,1.908245844841,9.36248682564029
1.9453820833005,-3.67431488692761,8.80257795274258,1.3173431879282,9.62919319450952
1.95537108345889,-3.19606761038303,9.06714984297753,0.990277353152633,9.66481782970139
1.96536108339205,-2.11259726107121,9.10769326686859,1.53732947409153,9.47504753248023
1.97535008331761,-0.759598044455051,8.57472189903259,2.21060697421432,8.88761092922806
1.98534008348361,0.32883205935359,5.87425902485848,2.33513804957271,6.329922537042
1.99532908340916,2.39042537391186,-0.328470847606659,2.27046272814274,3.3131597555588
2.00531908334233,5.89047920107842,-13.0345920825005,3.21364083230495,14.6603486784789
2.01530808350071,5.60841536521912,-37.6394603705406,5.58186315894127,38.4621956760072
2.02529708342627,3.76113083660603,-55.6318691825867,6.23582745194435,56.1064748307085
2.03528708335944,2.38038409665227,-27.0954500341415,-4.61086400270462,27.5878543538945
2.04527608328499,0.969031421989203,-6.72713857769966,-13.4993720519543,15.1137838127142
2.05526608345099,-0.982775594741106,-4.57235657930374,-11.3704885411263,12.2947266021577
2.06525508337654,-0.720812293589115,-10.1164408779144,-1.80370815396309,10.3012285434117
2.07524508330971,2.10389528855681,-17.9292074275017,5.8206646156311,18.9674191953268
2.08523408346809,4.15900521039963,-22.5352860689163,13.4125689661503,26.5524659649488
2.09522408340126,5.89495232105255,-21.3063907885551,15.3605770468712,26.9195111121093
2.10521308332682,4.88851377546787,-15.9200433182716,8.33353302419186,18.6223822013694
2.11520308349282,2.12344735443592,-12.4823868834972,2.70704099178314,12.9478601285139
2.12519208341837,1.6995452696085,-10.1913179826736,0.65227444767952,10.3526266378399
2.13518108334392,1.29091187283397,-8.82937925040722,-0.344320895075798,8.92989072104083
2.14517108350992,0.0222287750244141,-7.64727222025395,-0.554981310814619,7.66741617394415
2.15516008343548,-0.833049744218588,-5.95191531121731,-0.977431824356318,6.08889486848888
2.16515008336864,-1.26157902315259,-3.83051097393036,-1.7605842076242,4.40046051058242
2.1751390832942,-1.92923413306475,-1.40248391032219,-2.22400016784668,3.26114737561441
2.1851290834602,-2.47004690945148,0.918741420507431,-2.82080091118813,3.86032839447716
2.19511808338575,-2.47211185365915,2.90552823543549,-2.71687834739685,4.6834665898743
2.20510808331892,-1.95883624702692,4.72917071700096,-1.19075155377388,5.25547185093982
2.2150970834773,-0.948238942399621,6.65944126904011,0.885350895524025,6.78462683689257
2.22508608340286,0.415820867344737,8.85552156686783,2.66071350216866,9.25594757740142
2.23507608333603,1.43575734481215,11.1131841552258,4.2579763519764,11.9872692401202
2.24506508349441,1.43123496204615,13.067289712429,4.64128823518753,13.9407334967435
2.25505508342758,1.38183578386903,14.7777569961548,2.96118612706661,15.1347347267838
2.26504408335313,0.98549645036459,16.0599391222,1.17480093419552,16.1329788042208
2.2750340832863,0.838794341236353,16.675994746685,0.401218323335052,16.7018966851474
2.28502308344468,1.22000341951847,16.4882897686958,-0.391015005111694,16.5379865937284
2.29501308337785,1.25338838964701,15.5049459707737,-1.82854595661163,15.6626278870231
2.30500208330341,1.10798999033868,14.0986110842228,-3.70448710441589,14.619223680813
2.31499108346179,0.836341653540731,12.7130934548378,-4.62738004803658,13.554883203549
2.32498108339496,0.755875195339322,11.4461959505081,-4.36249942481518,12.2726586475739
2.33497008332051,0.54480393961072,10.5608152341843,-3.48828981399536,11.1353399395626
2.34496008348651,0.286799715086818,9.93541809797287,-2.15706241250038,10.1709244963043
2.35494908341207,0.0446972858905792,9.4683577144146,-0.805590707883239,9.50267183712603
2.36493908334523,-0.257946702539921,9.19253168821335,0.184223618879914,9.19799509033958
2.37492808350362,-0.622741550132632,8.94608792066574,0.763747447952628,9.00020034703657
2.38491808343679,-1.15880711831152,8.77197947323322,1.57322903931141,8.9869631926701
2.39490708336234,-1.65056957602501,9.11837612986565,1.83609763562679,9.4467146510603
2.40489608328789,-2.5021215185523,9.31283113360405,1.28702069699764,9.72861028570513
2.41488608345389,-3.24146422326565,9.47104217112064,1.3642694324255,10.1029184497405
2.42487508337945,-3.33649141788483,9.67480535745621,1.45413528978825,10.3367568960139
2.43486508331262,-2.7911795014143,9.22642215013504,1.8165100479126,9.80903957866341
2.444854083471,-2.13150335580111,7.4313561809063,2.48783764779568,8.12143444257695
2.45484408340417,-1.39127772152424,2.66937790632248,3.21007227659225,4.40065860140484
2.46483308332972,-0.135486564785242,-7.74231110930443,4.44872071266174,8.93044533613871
2.47482308349572,-0.825875356793404,-25.8810207653046,7.81468969881535,27.0477111979527
2.48481208342128,0.153046338111162,-48.0852936172485,12.0451917386055,49.5712167437756
2.49480108334683,4.75729231595993,-39.2007488107681,5.47997191786766,39.8667860470975
2.50479108328,4.71286692559719,-13.8321569752693,-6.5880619686842,16.0294180103366
2.51478008343838,2.05190462440252,-8.66529351532459,-15.1404784941673,17.565070831816
2.52477008337155,1.7432377114892,-10.8285627472401,-13.9260948336124,17.7266118083643
2.5347590832971,2.59325417518616,-17.2831859922409,-4.62192693471909,18.0774913594059
2.5447490834631,5.13118433475494,-22.184960668087,1.94913396209478,22.8538980422158
2.55473808338866,7.86550375699997,-20.0269381427765,7.24654382050037,22.7036736689992
2.56472808332182,7.9060746628046,-14.5221822166443,10.0487020540237,19.348803732474
2.57471708348021,4.46560747146607,-11.8875999212265,6.76451514959335,14.3880279116158
2.58470608340576,1.23161745160818,-10.5857641339302,2.34542564079165,10.9122090010589
2.59469608333893,-0.555080713480711,-9.15475575149059,-0.00999508425593376,9.17157387636591
2.60468508349732,-1.85157609254122,-7.71040226876736,-1.36386422038078,8.04604019281024
2.61467508343048,-2.94547962874174,-5.69173994243145,-1.54626986682415,6.5926249943896
2.62466408335604,-2.85460892736912,-3.27425365447998,-1.42819528698921,4.57266562301128
2.63465408328921,-2.98847069710493,-0.938280476331711,-0.658104121685028,3.20069186187907
2.64464308344759,-1.80457237243652,1.1907696801424,0.281989576220512,2.18035134774298
2.65463308338076,-0.379290753006935,3.11224075734615,1.11008219718933,3.32598654409783
2.66462208330631,0.685692820027471,4.65210266053677,1.70099596381187,5.00056207605853
2.6746110834647,1.64281967639923,6.13775210380554,1.8608670258522,6.62070113091037
2.68460108339787,2.52952829539776,7.84734288990498,2.38979621350765,8.58431300518892
2.69459008332342,2.43161169916391,8.84608416080475,2.59178067684174,9.53327160592845
2.70458008348942,1.86642948210239,10.7361323010921,2.95485651612282,11.2906719387771
2.71456908341497,2.28603503286839,13.0224345517159,3.31041225135326,13.6296950479141
2.72455908334814,2.99200972437859,14.6324256205559,2.9574175965786,15.2251870455646
2.73454808350652,3.05521783322096,15.8158447659016,2.43164590537548,16.2907398075304
2.74453808343969,2.63078657537699,16.3945589017868,1.36797481298447,16.6605508515865
2.75452708336525,1.85848004624248,16.2846031808853,-0.0329180699586868,16.3903426578126
2.7645160832908,1.04319940567017,15.8283285713196,-1.28550919175148,15.9146719803997
2.7745060834568,0.197283082678914,14.9884497177601,-2.10266810417175,15.1365041774128
2.78449508338235,-0.768892486095429,13.6762257671356,-2.56924024522305,13.9366905083851
2.79448508331552,-1.54333909615874,12.1794905877113,-2.72495393693447,12.5756614339086
2.80447408347391,-2.19976725965738,10.9420139336586,-2.15430135726929,11.3669547047119
2.81446408340707,-2.55878951668739,10.107833776474,-1.21437320865691,10.4971619847196
2.82445308333263,-2.63924311101437,9.54345584392548,-0.39127637565136,9.9094021437287
2.83444208349101,-2.68771448224783,9.09436103045941,0.400617814287543,9.49166509752361
2.84443208342418,-2.53472296178341,8.68901566922665,1.17321049153805,9.12689633175009
2.85442108334973,-2.16274064362049,8.208357000947,1.62840453565121,8.64327906979134
2.86441083345562,-1.58917644292116,8.00001427531242,2.18479049384594,8.44387468369455
2.87439983338118,-0.632072536870837,7.85139091730118,1.92113837063313,8.10768941605836
2.88438983331434,0.0963322200626135,7.76490708947182,1.07315352201462,7.83930612277415
2.89437883347273,0.559665807634592,7.7914739137888,0.580509231090546,7.83308895218661
2.9043688334059,1.05149799339473,6.86207068026066,0.532872549891472,6.9625868185204
2.91435783333145,1.27514500200748,3.87463698685169,0.746536826491356,4.1468209256407
2.92434683348984,2.33227700695395,-2.24444554209709,1.49666501283646,3.56609842674797
2.934336833423,3.37151156187058,-13.6302853631973,2.93378899812698,14.3442980720407
2.94432583334856,0.911559139341116,-31.1553215503693,4.95537785589695,31.5601136035049
2.95431583328173,-2.11418127179146,-45.8371140432358,6.56211787283421,46.3526933116034
2.96430483344011,-0.784069519042969,-26.4139968109131,0.644913095533848,26.4334996820022
2.97429483337328,0.129611721038818,-10.0710851955414,-5.81547988951206,11.6302778367244
2.98428383329883,-0.304206218272448,-11.0802526366711,-7.59909057855606,13.439148690925
2.99427383346483,2.53293079018593,-16.5187233567238,-1.71503542095423,16.7995626793965
3.00426283339039,6.17094557762146,-20.0771119308472,4.44675312459469,21.4696205405877
3.01425183331594,6.74073686242104,-19.7990698099136,7.77633722662926,22.3139445067092
3.02424183348194,4.17766718387604,-16.9983540844917,8.03937539219856,19.2621001289496
3.03423083340749,1.29274775236845,-14.1293498969078,5.77134685993195,15.3172507271425
3.04422083334066,0.405093200057745,-11.7057246172428,3.6383568495512,12.2648167487384
3.05420983349904,0.531661006808281,-10.1195130050182,1.57631212994456,10.2553384544784
3.06419983343221,0.912355457022786,-8.94507869124413,0.123259159773588,8.99233107113929
3.07418883335777,0.764822970181704,-7.61643692851067,-0.400679867863655,7.66522080687894
3.08417883329093,0.210124372243881,-6.15710346400738,-0.575733298435807,6.18753134531295
3.09416783344932,0.631614115163684,-4.193439463377,-0.821952605992556,4.31966167772194
3.10415683337487,0.662725176215172,-1.82067443490028,-1.03715155743063,2.19766772060056
3.11414683330804,1.02307241231203,0.809390886425972,-0.286492005363107,1.33561537764446
3.12413583346643,1.52551882937551,3.18754412412643,0.782052668184042,3.61928882763533
3.13412583339959,1.46059573218226,5.07828282058239,1.60434382796288,5.52233785791977
3.14411483332515,0.967884782999754,6.59530432999134,1.90651331484318,6.93322675080221
3.15410483349115,0.304608360528946,7.82106316387653,1.73552903473377,8.01709899508884
3.1640938334167,-0.185876919105649,9.05919295191765,1.49284561157227,9.18325188531389
3.17408383334987,-0.372368526756763,10.5409253454208,1.1384914791584,10.6087665779567
3.18407283350825,-0.357986824773252,12.2725268054009,1.07119119644165,12.3243871788957
3.19406183343381,-0.259060816392303,13.9775889229774,1.19148713350296,14.0306716231132
3.20405183336698,-0.139548241775483,15.2237101006508,1.08406676530838,15.2628969626374
3.21404083329253,0.105059061516076,15.8514648342133,0.742367761731148,15.8691866423697
3.22403083345853,0.393872356675565,15.7729378974438,-0.121533207893372,15.7783229676221
3.23401983338408,0.618846573606134,14.9932362484932,-1.10337894916534,15.0465128647888
3.24400983331725,0.835487448424101,13.614859238863,-1.86307844281197,13.7671163521849
3.25399883347563,0.883562524616718,12.0616130590439,-2.22908958435059,12.2976433797726
3.26398783340119,0.729038010388613,10.7159558987618,-2.2408044809103,10.9719830462167
3.27397783333436,0.473515855818987,9.88790128469467,-1.92847838044167,10.0853278551274
3.28396683349274,0.104918892793357,9.30840245246887,-1.23064593672752,9.38998688033042
3.29395683342591,-0.277679885923862,8.82040845215321,-0.417140364646912,8.83463171081173
3.30394583335146,-0.634039174765348,8.56151537775993,0.314181933626533,8.59070785943593
3.31393583328463,-0.942569774463773,8.54742651164532,0.80933943092823,8.63724308249832
3.32392483344302,-1.22248724363744,8.73914267957211,1.0243954179436,8.88349457179318
3.33391483337618,-1.55742518484592,9.1195227688551,1.04241061627865,9.31009605917089
3.34390383330174,-1.88410532265902,9.70571140050888,1.16843689776957,9.95569844063737
3.35389283346012,-2.11309485912323,10.3902987313271,1.56465936005116,10.717818645735
3.36388283339329,-2.13796116694808,10.9264264261723,2.09011296272278,11.3281174338402
3.37387183331884,-1.56862771913409,10.6705744886398,2.6470678550005,11.1053465082285
3.38386183348484,-0.544078592509031,9.21742679357529,2.85619118392468,9.6651335370431
3.3938508334104,0.470619145184755,5.71325769603252,2.94331645131111,6.44405987042702
3.40384083334357,1.75435019865632,-0.962884390354157,3.59398642301559,4.11359081308941
3.41382983350195,2.38229335874319,-14.0080879998207,5.22719093799591,15.1401907570578
3.42381983343512,-0.588910802900791,-37.8101593065262,7.85927004039288,38.622831179064
3.43380883336067,1.03171313524246,-54.0667519855499,10.3364388585091,55.0556088926105
3.44379783328623,4.94462307214737,-27.7037148284912,1.04480402782559,28.1609077992975
3.45378783345222,4.22928464949131,-8.73127583563328,-9.3942810934782,13.5046119391717
3.46377683337778,4.93433314204216,-7.25105377793312,-11.3072310233116,14.3100977586344
3.47376683331095,4.69721509873867,-12.9607171905041,-6.6124916356802,15.2895083442205
3.48375583346933,4.17106450796127,-18.1413420724869,-0.79945500522852,18.6318329647392
3.4937458334025,3.88177380591631,-19.5752828335762,4.57535853981972,20.4742221259491
3.50373483332805,2.38765262424946,-17.2268118166924,6.99279454171658,18.7446820705094
3.51372483349405,0.0671797569841146,-13.8246643531322,5.68457593381405,14.9479182879695
3.52371383341961,-1.83105616629124,-11.2990542769432,3.95205529153347,12.1095059876429
3.53370283334516,-2.21550796419382,-9.25919813275337,2.89485589742661,9.95095052082239
3.54369283351116,-2.00901588231325,-7.6645437258482,1.89279867053032,8.14641406681414
3.55368183343671,-1.63358019858599,-6.05192199468613,1.43431732177734,6.43052177311674
3.56367183336988,-0.935114282146096,-4.22734746694565,0.762288640737534,4.39613344869817
3.57366083329543,-0.285352383032441,-2.07387875318527,0.0031638552993536,2.09342042490178
3.58365083346143,0.527242996841669,0.334778823852539,-0.451795715466142,0.77083163345327
3.59363983338699,0.844115380570293,2.53074042320251,-0.482698250189424,2.71112070297184
3.60362883331254,0.508642638400197,4.26291783392429,-0.0655157855898142,4.29365556496442
3.61361883347854,-0.148289335817099,5.73344169974327,0.733687570095062,5.78209658359181
3.62360783340409,-0.376361224874854,7.13314818263054,1.35927707970142,7.2712505765072
3.63359783333726,-0.341112418211997,8.44645386815071,1.62401327669621,8.6079242417404
3.64358683349565,-0.351367995925248,9.71954766690731,1.53454561471939,9.84621229516703
3.65357683342882,-0.263676462247968,11.1134753465652,1.45400782048702,11.2112888776222
3.66356583335437,0.0564744918420911,12.5018557727337,1.32079538404942,12.5715586773077
3.67355583328754,0.47144214078784,13.6693985581398,0.871036326885224,13.7052332674836
3.68354483344592,1.01850646778941,14.6497333788872,0.860062272548676,14.7102600456305
3.69353383337148,1.37774404853582,15.3681947994232,0.695695944204927,15.4455036467924
3.70352383330464,1.31958939582109,15.5340066325665,-0.487213981747627,15.5975656978322
3.71351283346303,0.93107860699296,14.834970831871,-2.11592725038528,15.0140072959816
3.7235028333962,0.582965098209679,13.2590596747398,-3.50967892885208,13.7280864634395
3.73349183332175,0.366804974153638,11.588596701622,-4.20408256530762,12.3330624590096
3.74348183348775,0.199643092006445,10.5219756889343,-3.87364997684956,11.2141425845161
3.7534708334133,0.181297087445855,9.87688279151917,-2.89367359042168,10.293640228764
3.76345983333886,0.161281775906682,9.44494195461273,-1.77741380989552,9.61208303068855
3.77344983350486,0.033278623893857,9.18609975099564,-0.824023616686463,9.22304456364098
3.78343883343041,-0.241873364523053,9.01971547544003,0.0685083174705505,9.02321801642411
3.79342883336358,-0.84709746055305,9.04702840447426,1.21425209820271,9.16737177259814
3.80341783328913,-1.60170819550753,9.13496994316578,2.53192214548588,9.61372845242157
3.81340783345513,-2.31047668665648,9.30090047478676,3.26862453997135,10.125658425247
3.82339683338068,-2.80719941049814,9.40852081775665,3.00118634462357,10.2668277468562
3.83338683331385,-2.65918854832649,9.27499380111694,2.68599861681461,10.0155570147565
3.84337583347224,-1.68987660616636,8.32997616291046,2.76591485202313,8.93837070093689
3.85336483339779,-0.358034077584744,4.85751534640789,2.92209164321423,5.67998796764945
3.86335541680455,1.24285550773144,-2.43191604673862,3.46875660538673,4.41488140938092
3.87334441673011,2.48473394572735,-14.2607812714577,4.67163586914539,15.2107845605443
3.88333441666327,1.01229350879788,-32.437248737812,5.98601510345936,33.0004881879873
3.89332341682166,0.828908015191555,-45.3317508888245,7.36523235797882,45.9336627630663
3.90331341675483,2.21596814006567,-27.107149143219,0.253739192336798,27.1987579320864
3.91330241668038,1.98847987622023,-10.8126875567436,-9.01574989378452,14.2180171108761
3.92329241661355,1.68636739969254,-8.74385728955269,-9.02661928296089,12.6798553219795
3.93328141677193,3.92936575591564,-14.7960073256493,-3.67882338255644,15.7446971868141
3.94327041669749,6.01569966316223,-20.1111988592148,1.46663663685322,21.0428131440835
3.95326041663066,7.38822068631649,-20.9234800243378,5.48094606399536,22.8564780969204
3.96324941678904,5.98957664251328,-17.7585014748573,6.61336287081242,19.8740024013808
3.97323941672221,2.95724948912859,-13.8831657457352,3.10917857050896,14.5311598658819
3.98322841664776,0.335563666373491,-11.1442176675797,0.209728077203035,11.1512410189607
3.99321841681376,-0.68840987496078,-9.10829202175141,-0.141639882177114,9.13536827750622
4.00320741673932,-1.02527542389929,-7.46995949864388,0.570449681282044,7.56154067932631
4.01319641666487,-1.37100118562579,-6.12568169653416,1.59252134263515,6.47609023446936
4.02318641683087,-1.56738445490599,-4.5748574334383,2.10154558494687,5.27280839888729
4.03317541675642,-0.76163791872561,-2.47952524602413,1.71863584399223,3.11156663582296
4.04316541668959,-0.0392720199376345,-0.295606572031975,1.52535203754902,1.55422790331194
4.05315441661514,0.65133779682219,1.77819382846355,1.53255112946034,2.43617059779589
4.06314441678114,0.801535517647863,3.66461435616016,1.5434626185894,4.0563696109217
4.0731334167067,0.603432984240353,5.31624578654766,1.63113635480404,5.5934967987314
4.08312341663986,0.348971478044987,6.83179964482784,1.40319025397301,6.98313757335509
4.09311241679825,0.0557517394423485,8.27668990194798,1.24168547987938,8.3694974054839
4.1031014167238,-0.0489262846112251,9.79784539282322,1.01297397851944,9.85019209986032
4.11309141665697,-0.270192307010293,11.3698441779614,1.15723063588142,11.4317777820649
4.12308041681536,-0.227923991046846,12.9162771821022,1.59546892404556,13.0164390936302
4.13307041674852,0.0927240494638681,14.3611031198502,1.56542709946632,14.4464681694891
4.14305941667408,0.430311583355069,15.3944382727146,1.19159998476505,15.4464820692248
4.15304941684008,0.603102470375598,15.8752407824993,0.739428366422653,15.90389124715
4.16303841676563,0.658253298774362,15.8263241457939,0.00157523989677429,15.8400074448994
4.17302741669118,0.823709694296122,14.9719839584827,-1.23744683325291,15.0455998876306
4.18301741662435,0.645432328283787,13.5038358163834,-2.51847121059895,13.7518312193267
4.19300641678274,0.182607119567692,11.9185504031181,-3.2501566940546,12.355108563169
4.20299641671591,-0.323480468317866,10.7141175341606,-3.47119255542755,11.2670374059043
4.21298541664146,-0.911466022431851,10.1722350096703,-3.07896600723267,10.6670130343833
4.22297541680746,-1.19993526376784,9.83361339569092,-1.9347635525465,10.0937162164095
4.23296441673301,-1.20966524988413,9.58355137109757,-0.658927994370461,9.68204177852008
4.24295341665857,-1.19853090874851,9.45543069005013,0.314017699956894,9.53625990572056
4.25294341682456,-1.33803092926741,9.31818776786327,1.04974894501269,9.47211290538643
4.26293241675012,-1.85487596869469,9.26112479031086,1.83031707823277,9.62076181223826
4.27292241668329,-2.24604767918587,9.55778736948967,2.73974271476269,10.1932438271949
4.28291141684167,-1.84786778837442,9.84429391980171,3.49585494160652,10.6087576989727
4.29290141677484,-0.956459396705031,9.4672455739975,3.99464056313038,10.3199179533816
4.30289041670039,-0.202149500995874,7.42311336100102,3.91424368679524,8.39433023121208
4.31288041663356,0.730338942781091,2.38621303975582,3.80440257132053,4.54982269622824
4.32286941679195,2.34298223555088,-6.89293637752533,4.46692660331726,8.54140333552646
4.3328584167175,2.75322347044945,-21.8962929868698,6.37596240699291,22.9713034601971
4.34284841665067,0.544421385526657,-41.1881940221787,6.64990621447563,41.7251120323837
4.35283741680905,1.18300720900297,-38.4223019742966,3.63370158880949,38.6118710022851
4.36282741674222,1.61070179790258,-13.0891138601303,-6.42781551539898,14.6709261543103
4.37281641666777,0.451158222779632,-5.03786745071411,-12.4905952048302,13.4758532480831
4.38280641683377,1.2919057533145,-7.91784452319145,-8.24835663378239,11.5063751688767
4.39279541675933,3.04141460359097,-15.5566692709923,-1.88777708172798,15.9632034350336
4.4027854166925,4.55478569626808,-19.9993439626694,3.01024017333984,20.7311692284173
4.41277441661805,4.87652113616467,-19.7925185894966,6.63112671196461,21.4358599542253
4.42276341677643,3.77886193335056,-16.0408444547653,7.14038762032986,17.9603347324559
4.4327534167096,1.96517594441772,-12.6430017113686,4.54968107700348,13.5796541439254
4.44274241663516,0.34831878259778,-10.6779139137268,2.74125246584415,11.0296707387287
4.45273241680116,-0.333287126049399,-9.61416037559509,1.69715010389686,9.76849417828614
4.46272141672671,-0.246994282901287,-8.91274358868599,1.37433892250061,9.02146395699441
4.47271141665988,0.393200913593173,-7.92238722503185,1.55834144353867,8.08376486276343
4.48270041681826,0.799517351165414,-6.28307646274567,1.93782705500722,6.6235527873371
4.49268941674382,0.944331979081035,-4.38010889947414,1.51233043447137,4.72908661381837
4.50267941667698,0.844413076937199,-2.5280167901516,0.451647123098373,2.7033104630423
4.51266841683537,0.389580390751362,-0.658508164286614,-0.483560714498162,0.90511703546894
4.52265841676854,-0.440829445235431,1.34570218384266,-0.246659602895379,1.43738857901612
4.53264741669409,-0.990570810288191,3.2982792788744,0.778922288194299,3.53080680053342
4.54263741662726,-1.26611441597343,5.28906558930874,1.88345774352551,5.75540386019884
4.55262641678564,-1.59132178634405,7.27122140944004,2.65137959182262,7.90144161230885
4.56261641671881,-1.81560913816094,9.20341394126415,2.90764200389385,9.82108174997219
4.57260541664437,-1.72002587333322,10.9721715331078,3.02159195780754,11.5098677280133
4.58259441680275,-0.931222448498011,12.5821368741989,3.57319664776325,13.1127829942102
4.59258441673592,-0.723704034090042,13.8175190556049,2.81509461343288,14.1199269850641
4.60257341666147,-0.24900329483673,14.8899603867531,0.72421975851059,14.9096417535276
4.61256341682747,0.299978005271405,15.4825452876091,-0.61309993006289,15.4975832603266
4.62255241675302,0.496297192722559,15.5426359534264,-1.76028380692005,15.6498703625669
4.63254241668619,0.839598260298371,15.1977355992794,-3.10276709854603,15.5339388518212
4.64253141684458,1.288111641258,14.2518151509762,-4.00374994039536,14.8594576039354
4.65252041677013,1.91285184279084,12.5765048360825,-4.54090265214443,13.507304429853
4.6625104167033,2.09488165944815,11.2914400327206,-4.96998303115368,12.5134279280129
4.67249941662885,1.76648901835084,10.3860653471947,-4.52624660611153,11.466374544183
4.68248941679485,1.42055429175496,9.78619189202786,-3.40227668702602,10.4576772229064
4.69247841672041,0.947939784228802,9.43628749072552,-2.06666972100735,9.70635025011334
4.70246841665357,0.438193118423224,9.29238751351833,-0.590183376297355,9.32141595081362
4.71245741681196,-0.038079918846488,9.27169070899487,0.882359459996223,9.31365969424082
4.72244641673751,-0.423694801032543,9.41850961625576,2.0083589476347,9.63957189601637
4.73243641667068,-0.965105235949159,9.77009450733662,2.22475738227367,10.0665644690096
4.74242541682906,-1.58429752618074,10.1356337785721,1.87881973206997,10.4293352774954
4.75241541676223,-1.90246338710189,10.5786141586304,1.77952874779701,10.8946393708408
4.76240441668779,-1.86156313687563,10.8190598523617,2.35630570113659,11.2280741874449
4.77239441662096,-0.968739499747753,10.0354569411278,3.25084081828594,10.5932439914049
4.78238341677934,0.210188618525863,8.24706615328789,3.54398045003414,8.97875697534401
4.79237241670489,1.22186663478613,4.04149897992611,3.25068411290646,5.32856634375981
4.80236241663806,2.65306212812662,-3.59345198750496,3.56503685832024,5.71499113239775
4.81235141679645,2.45007106661797,-18.3861813640595,5.29383223950863,19.2893538814452
4.82234141672961,-2.38771738216281,-45.297172794342,9.33518854737282,46.3106985768145
4.83233041665517,-1.92913765400648,-52.7394808101654,10.8886534130573,53.8863357574404
4.84232041682117,0.786217055171728,-21.9617022800446,-0.752646582126618,21.9886557381925
4.85230941674672,1.0009684022516,-7.37577313363552,-8.58433296740055,11.361986602543
4.8622989167925,1.60539676532149,-8.71558190882206,-10.1948543787003,13.5082834803832
4.87228791671805,2.86002812683582,-15.5839383459091,-5.88590726315975,16.9021536960798
4.88227691664361,3.72225094556809,-19.7628849005699,-1.15704484060407,20.1436224264189
4.8922669168096,4.75364072978497,-19.7231752896309,2.51724826544523,20.4435144366927
4.90225591673516,5.89820922017098,-16.4651897585392,4.55367063224316,18.0728321526143
4.91224591666833,6.08740757703781,-12.9350420665741,5.34307515084744,15.2617265189959
4.92223491682671,5.67680323004723,-10.6242060685158,6.21712981045246,13.555535864693
4.93222491675988,4.11697250068188,-9.06092665135861,5.70554404914379,11.4718388782876
4.94221391668543,1.95953206568956,-7.60368181228638,3.49153618812561,8.59340258407291
4.95220291684382,0.0414455030858517,-6.13773514688015,1.4356674438715,6.30354277151876
4.96219291677699,-1.61015157490969,-4.3794399780035,-0.482816144675016,4.69096941416999
4.97218191670254,-2.25366499319673,-2.24036418557167,-2.66693406254053,4.14858709436015
4.98217191663571,-2.41776052236557,0.066842445731163,-4.48854375958443,5.09873111055732
4.99216091679409,-2.12520385801792,2.34337575316429,-4.80704744338989,5.75461610202226
5.00215091672726,-1.99356110662222,4.34312993824482,-3.58630142748356,5.97483233865904
5.01213991665281,-2.00716114550829,6.02190472841263,-1.72258154511452,6.57718173701211
5.02212991681881,-1.96111870765686,7.84094018876553,0.0251968216896057,8.08250979022873
5.03211891674437,-1.62852264940739,10.1054153680801,1.81361333727837,10.3952248228798
5.04210791666992,-0.65385699659586,12.5158282792568,3.69985961794853,13.0676106339441
5.05209791683592,0.41874144192785,14.9043398594856,4.35303044378758,15.532661236465
5.06208691676147,0.569667287282646,16.5655314874649,2.74387669622898,16.8008991903558
5.07207691669464,1.23316374778748,17.2482266592979,1.28810944855213,17.340162677173
5.0820659166202,1.24254385113716,17.0992933988571,0.727743802294135,17.1598182101086
5.09205491677858,0.39040400762111,16.105750887394,-0.250213394388557,16.1124248230578
5.10204491671175,0.0895430545136333,14.760938065052,-1.62609371602535,14.8505047487353
5.1120339166373,-0.185227439627051,13.2612465333939,-2.66301087319851,13.5272538134913
5.1220239168033,-0.465121958479285,11.947191234827,-3.04922472953796,12.3389419436601
5.13201291672885,-1.00036796629429,10.897504928112,-3.27165281295776,11.4219114799034
5.14200291666202,-1.57918413609266,10.137308421135,-3.0790630710125,10.7116513178955
5.15199191682041,-2.07635183304548,9.76695981502533,-2.42514964878559,10.2755093198301
5.16198191675358,-2.43247123986483,9.64177969872952,-1.57129302620888,10.0672634745404
5.17197091667913,-2.58046865344048,9.5079533046484,-0.593529810905457,9.86976555705336
5.18195991683751,-2.54538974493742,9.27984640538693,0.427616967111826,9.63210332854497
5.19194991677068,-2.35806468978524,9.08893247544765,1.51622468009591,9.51147201567617
5.20193891669624,-1.97177701234818,9.30686346530914,2.78162164270878,9.9117622606435
5.2119289166294,-1.21135377958417,9.46645561516285,3.90682590901852,10.3123444752655
5.22191791678779,-0.426371510177851,8.76294552505016,4.45290907323361,9.83866892187018
5.23190791672096,0.0800232392549515,6.15631525933743,4.07610631048679,7.38385156578611
5.24189691664651,1.68878697752953,1.51607075214386,3.70912102282047,4.34833884867637
5.2518859168049,5.1822468996048,-7.19794059455395,4.71366682469845,10.0441369298439
5.26187591673806,6.59881850659847,-22.8988027882576,6.8494126278162,24.7954436976762
5.27186491666362,4.12029547333717,-46.9478558063507,6.49007257461548,47.5730915710265
5.28185491682962,0.591328918933868,-45.1382548284531,0.903463523089886,45.1511679271565
5.29184391675517,-0.97898119032383,-16.3065431034565,-9.92155318021774,19.1127959666759
5.30183391668834,-2.58367117345333,-5.71297469079495,-13.9794916069508,15.3212147736073
5.31182291661389,-4.30984641730785,-6.6445127427578,-9.39094584167004,12.2847136527732
5.32181191677228,-2.54784177482128,-13.5794286203384,-2.4903659838438,14.0390278188298
5.33180191670544,1.26405224919319,-18.6606847500801,3.18542333900929,18.9727674649553
5.341790916631,5.06612295091152,-20.1924938678741,8.10067526221275,22.3388305437351
5.351780916797,6.38992614269257,-17.833624162674,9.31781939327717,21.1113965698697
5.36176991672255,4.0824996560812,-13.2791787743568,6.70958699047566,15.4279600059759
5.37175991665572,1.35501387476921,-10.1955174529552,3.91724447786808,11.0058822015193
5.3817489168141,0.618385739922524,-7.91659789681435,2.61524672269821,8.36028938516895
5.39173891674727,0.544815634042025,-6.13935248672962,2.28071158155799,6.57191892445902
5.40172791667283,0.0878478370606899,-4.72666284620762,2.20974056303501,5.21843005703038
5.41171691683121,-0.36161279283464,-3.22790862321854,1.65927096381784,3.64737412711655
5.42170691676438,-0.314784123748541,-1.44739578902721,0.671927451118827,1.6265085656783
5.43169591668993,0.462961412295699,0.532013009190559,-0.599051921367645,0.925329301231237
5.4416859166231,0.734425269439817,2.42749906003475,-1.66176348567009,3.03209334374253
5.45167491678149,0.628077207505703,3.83950691521168,-1.7181821000576,4.25305114705958
5.46166491671465,0.825426948443055,5.14799683392048,-0.937473487481475,5.29736326760795
5.47165391664021,1.00409892842174,6.5488195502758,0.188263350538909,6.62802347983834
5.48164291679859,1.01420613303781,8.11858937680721,1.51831549823284,8.32138146593896
5.49163291673176,1.1396003305167,9.77908518612385,2.18560325682163,10.0849421211532
5.50162191665731,1.26622288182378,11.447933743,1.88126796126366,11.6703760227616
5.51161191682331,1.20676912397146,12.7843008470535,1.09678212046623,12.8878846552225
5.52160091674887,1.41184120953083,13.9895289373398,0.863871148824692,14.0871036359987
5.53159091668204,1.55992779314518,15.3258960413933,0.807325065135956,15.4262191723124
5.54157991684042,1.11542041271925,16.2806411075592,0.544993827939034,16.3279042085244
5.55156891676597,0.321779696010053,16.3565777277946,-0.0717288907617331,16.3598998215735
5.56155891669914,-0.3688733901456,15.4503247904778,-1.47086651265621,15.5245628604242
5.5715479166247,-0.837085931003094,13.8183014130592,-2.74464794397354,14.1130882210236
5.58153791679069,-0.956581749692559,12.3109430122376,-3.15894656181335,12.7457173150356
5.59152691671625,-0.924739275053144,11.3755031132698,-2.88832514226437,11.7728346601094
5.60151691664942,-1.06181094691157,10.8204924201965,-1.9897051602602,11.0530278805076
5.6115059168078,-1.32573555037379,10.3910729026794,-0.963565590977669,10.5195261046513
5.62149491673335,-1.56134340405464,10.0034422659874,-0.241436723694205,10.1274351188184
5.63148491666652,-1.87956905275583,9.68441116333008,0.27867427803576,9.86905561630638
5.64147391682491,-2.21846987128258,9.45355782687664,0.695751419663429,9.73526754608484
5.65146391675808,-2.47585670292378,9.44430577754974,0.973152685761452,9.81181961631362
5.66145291668363,-2.32280407905579,9.44447125375271,1.43390860140324,9.8310502963731
5.6714429166168,-1.62262982547283,9.10292076945305,2.33635617077351,9.53701495448996
5.68143191677518,-0.78672327786684,7.8794359177351,3.07218849956989,8.49369095708815
5.69142091670074,0.0366183342039585,4.79812868535519,3.68164261758328,6.047964297781
5.7014109166339,1.26702921286225,-2.47386572599411,4.24192749917507,5.0714222427986
5.71139991679229,0.911409304440022,-15.9697224318981,5.76306077063084,17.0022225287776
5.72138991672546,-2.17441957980394,-37.1361343860626,9.54865694224834,38.4056952423659
5.73137891665101,-1.32597060844302,-47.9395061588287,10.7326882910728,49.1441252517548
5.74136891681701,2.19794190511107,-20.7294857811928,0.720249937623739,20.8581228624142
5.75135791674256,3.40724448144436,-5.70612818598747,-8.17535823941231,10.5359240778387
5.76134791667573,4.30137497127056,-6.1220803964138,-12.3897342431545,14.4736729837185
5.77133691683412,4.50685373067856,-13.4996047711372,-7.3166677236557,16.0026462219543
5.78132591675967,5.46787636756897,-20.1895725989342,-0.734766966104508,20.9297968502595
5.79131591669284,7.30996681451798,-22.383749628067,4.55483715176582,23.983627826508
5.80130491661839,7.60403089106083,-19.2443853914738,6.87117596447468,21.8032271469742
5.81129491678439,4.53442013651133,-14.3617077219486,4.45081343114376,15.7044374258974
5.82128391670995,1.20674018025398,-11.8945160079002,1.38933746919036,12.0360288936231
5.83127391664311,-0.812145509719849,-10.3142054057121,0.548262567669153,10.3606469548618
5.8412629168015,-1.0725094512105,-8.74437009036541,0.908578301891685,8.85662460144278
5.85125191672705,-0.23565360814333,-7.1353327023983,1.66312764108181,7.33038191006962
5.86124229175039,0.338683375194669,-5.53684369146824,2.50385024785996,6.08609978196983
5.87123129167594,0.454250815138221,-3.57948942124844,2.13774028837681,4.19392678291271
5.88122129184194,0.131152827814221,-1.34570042967796,1.16102774463594,1.78216052433375
5.89121029176749,0.187130489051342,0.810513551831246,-0.212390168309212,0.85852176514583
5.90120029170066,0.0810318108648062,2.63700596630573,-0.894470943957567,2.7857575074454
5.91118929162622,0.0674012933671475,4.15701774179936,-0.868791580796242,4.24736839123293
5.9211782917846,0.365359834805131,5.71661984503269,-0.476454520225525,5.74806394983161
5.93116829171777,0.589200824797154,7.43434176921845,0.195624483413994,7.46021876971438
5.94115729164332,0.711954492777586,9.3234771591425,1.06859971046448,9.4114829266191
5.95114729180932,0.713531121388078,11.1276747250557,1.77042463302612,11.2902026035434
5.96113629173487,0.523026569634676,12.6455347251892,1.91854513049126,12.8009343680937
5.97112629166804,0.619009418562055,13.9817123794556,1.90240973889828,14.124114716921
5.98111529182643,1.04036438316107,15.4956126451492,2.21062524676323,15.6870402970059
5.99110429175198,0.854901666194201,16.6392987906933,2.43095417976379,16.8376559927129
6.00109429168515,0.434457368887961,17.0777429008484,1.81100957214832,17.1789933192627
6.01108329184353,0.00475265342742205,16.5446148276329,0.256029729433358,16.5465964356661
6.0210732917767,-0.434477212876082,15.0218104219437,-1.58853003323078,15.1118161207646
6.03106229170226,-0.638145308867097,13.2779286396503,-2.77053181350231,13.5788977801773
6.04105229163542,-0.831971517652273,11.6879596066475,-3.3111367213726,12.1763788853842
6.05104129179381,-1.13489025212824,10.4848809528351,-3.27226150810719,11.0421193553113
6.06103029171936,-1.37895310655236,9.81486722230911,-2.71996801614761,10.2777116261595
6.07102029165253,-1.37421057611704,9.6171921569109,-1.76694086194038,9.87425539977851
6.08100929181092,-1.28135079815984,9.49302945613861,-0.77827434360981,9.61068046898769
6.09099929174408,-1.4085137052834,9.24426083564758,-0.107996940203011,9.35157380308535
6.10098829166964,-1.67761689528823,8.95004063844681,0.500034440606833,9.1196304924596
6.11097829183564,-1.85922454297543,8.78468664228916,1.19298519015312,9.05818132785718
6.12096729176119,-2.05119462624192,9.09246594786644,2.05635757148266,9.54510046409301
6.13095629168674,-1.96624744668603,9.50189500451088,2.83890973806381,10.1099726112004
6.14094629161991,-1.35680224567652,9.2329710316658,3.4373804461956,9.94506162561804
6.1509352917783,-0.985951071381569,7.5180680501461,3.25696109890938,8.25234768545261
6.16092529171146,-0.454133213013411,4.43176554143429,2.69024603426456,5.20424889050115
6.17091429163702,1.05370115116239,-1.59214068889618,2.85337224125862,3.43321004839276
6.18090429180302,2.27014917120338,-14.2734276294708,4.5914231801033,15.1646127669666
6.19089329172857,-0.453066827058792,-37.2672617053986,7.53467063426972,38.0240098639711
6.20088229165413,0.610065444409847,-51.9039838600159,7.11649999022484,52.3931321119297
6.21087229182012,2.49779691785574,-23.7171042466164,-2.32863404542208,23.9616894188456
6.22086129174568,1.60591877549887,-7.21155992925167,-10.702757563591,13.0051755540513
6.23085129167885,1.10369294464588,-7.81241688609123,-12.0088056850433,14.3688346674069
6.24084029183723,2.49468239843845,-13.2535632920265,-5.19564579427242,14.4525124260238
6.2508302917704,4.60327343970537,-18.4033604836464,1.22697373911738,19.0099781169842
6.26081929169595,5.72956850409508,-20.1289299559593,6.17561399459839,21.8206320858337
6.27080829162151,5.78986323773861,-17.7802379143238,9.47281387746334,20.9617169945293
6.28079829178751,3.45184733480215,-13.5782907521725,7.87497507691383,16.0717286635672
6.29078729171306,0.696046119332314,-11.1487726485729,3.58275158286095,11.7309727079342
6.30077729164623,-0.213220326751471,-9.31308899581432,1.31506277382374,9.40789453867308
6.31076629180461,0.062452502399683,-7.58954382956028,0.944612572342158,7.64835725941848
6.32075629173778,0.507672073692083,-5.98791603326798,0.903546699732542,6.07694544935793
6.33074529166333,0.5171559651196,-4.09004197955132,0.582006629928947,4.16348716871231
6.34073529182933,0.264279529452324,-2.11027299284935,0.0324285118281841,2.12700432120301
6.35072429175489,-0.147604334503412,-0.239963883161545,-0.735441807880998,0.787555939324587
6.36071329168044,-0.498349346145988,1.619992146492,-1.24609135687351,2.10368017891855
6.37070329161361,-0.409073765203357,3.3698556303978,-1.5270079690218,3.72223342263183
6.38069229177199,0.0912042850255966,4.93416006445885,-0.958516447171569,5.02722662536771
6.39068229170516,0.644634329527617,6.34275840818882,0.573659217953682,6.40118915060309
6.40067129163072,0.740310272723436,7.68095218241215,2.05615876615047,7.98579204587868
6.4106602917891,0.408239002078772,9.18767616033554,2.97860673666,9.66706524244523
6.42065029172227,0.30291756503284,10.9462496566772,2.95280121982098,11.3415684824141
6.43063929164782,0.0903722993284464,12.3688865804672,2.39898920595646,12.5997091872489
6.44062929181382,0.0504905975237489,13.5183018279076,1.8676223140955,13.6467962071306
6.45061829173937,0.473399861678481,14.5327574908733,1.39071580410004,14.6068216311881
6.46060829167254,0.628222803175449,15.090692961216,0.605920060873032,15.1159127101307
6.47059729183093,0.65394565500319,15.1222866368294,-0.529213947057724,15.1456682073749
6.48058629175648,0.94195033505559,14.6884208965302,-1.65570986330509,14.8114264680611
6.49057629168965,1.18589682988822,13.7031393313408,-2.75796205401421,14.0281407719149
6.5005652916152,1.03693367555738,12.5174315857887,-3.34102125585079,12.9970668992836
6.5105552917812,0.701515458673239,11.5512832796574,-3.23366871535778,12.015859632433
6.52054429170676,0.371459065452218,10.847740445137,-2.79438786864281,11.2080354283338
6.53053429163992,-0.124354781806469,10.3463417029381,-2.05302641272545,10.5487993723012
6.54052329179831,-0.652282195240259,10.040352230072,-0.97909930408001,10.1090444856767
6.55051229172386,-1.21272414766252,9.88236631035805,0.0764791687577963,9.95679229539702
6.56050229165703,-2.01147112816572,9.87667813897133,0.737815704345703,10.1063919958538
6.57049129181542,-2.93157524228096,9.93255413174629,1.15761421322823,10.42064468485
6.58048129174858,-3.69754295110703,10.0467373895645,1.41116117835045,10.7981540978742
6.59047029167414,-3.80923090964556,9.98770156145096,1.96867857277393,10.869228028085
6.60046029184014,-3.20498929202557,9.0207287979126,2.98304711222649,10.027166822251
6.61044929176569,-2.27862909570336,6.6921809989214,3.72491142868996,7.9907698145858
6.62043829169124,-1.26619072213769,2.2022385853529,4.41130671858788,5.0904538792826
6.63042829162441,-0.053753307312727,-6.83488522052765,5.56887181520462,8.81651170758678
6.6404172917828,-1.24393548846245,-22.408976855278,7.87625912547112,23.7853962971276
6.65040729171597,-3.13796002775431,-42.9446461486816,12.1845110070705,44.7498797143935
6.66039629164152,1.30766823872924,-37.8138173246384,7.92714393496513,38.6579149444115
6.67038629180752,4.07380660057068,-14.1400362682343,-4.90017312347889,15.5096170979782
6.68037529173307,5.4150760102272,-11.4348722326756,-11.8159808850288,17.3117519462797
6.69036429165863,7.29131887435913,-16.1747690820694,-13.5892846870422,22.3484931056063
6.70035429182462,7.66297491788864,-19.9070374774933,-9.22585204660893,23.2406469726733
6.71034329175018,7.33425790250301,-21.1835127210617,-3.06633368253708,22.6259795906492
6.72033329168335,5.87289311528206,-18.8853324365616,2.62227390646935,19.9505131568971
6.73032229184173,3.81999563366175,-14.4329092669487,6.49416854918003,16.2811382186359
6.7403122917749,2.63796374022961,-10.4510980796814,7.08167280435562,12.8970691815558
6.75030129170045,1.87757515221834,-9.31468996345997,6.67501649737358,11.6122600215384
6.76029029162601,0.592637818157673,-9.34535802483559,5.5761135917902,10.8986228021901
6.77028029179201,-0.201955227255821,-8.60865679979324,4.47685225188732,9.70525444775514
6.78026929171756,-0.487717792466283,-6.73456337213516,3.31935556769371,7.52398390768959
6.79025929165073,-0.514649775400758,-4.32625955164433,2.310555331707,4.93153647866397
6.80024829180911,-1.10333056345582,-2.15356168448925,1.25976565539837,2.72803514780825
6.81023829174228,-1.26211506664753,-0.147656813263893,0.27398232601583,1.29992434046409
6.82022729166783,-1.30330256134272,1.65867615580559,-0.162631569094956,2.11571576151117
6.83021629182622,-1.57133454144001,3.19806384980679,-0.268149838037789,3.57331904036054
6.84020629175939,-1.84355488210917,4.59510751068592,-0.395855914950371,4.9669316024596
6.85019529168494,-1.70859997540712,5.92094377934933,-0.525512074828148,6.1849051775243
6.86018529161811,-1.2238860438019,7.4562232196331,-0.269966549668461,7.56082295039031
6.87017458328046,-0.521037821955979,9.20686087489128,0.531571544408798,9.23690077289659
6.88016458344646,0.587151266075671,11.1977875185013,1.70285771727562,11.3417333915078
6.89015358337201,1.47893859386444,12.9889884781837,2.76959684371948,13.3630740373446
6.90014258329757,1.9862257745862,14.118104531765,1.76485983788967,14.3659562384434
6.91013258346356,2.52764929264784,15.3395890510082,1.34291540086269,15.6043399403598
6.92012158338912,3.25925759285688,16.1559270143509,1.17917172789574,16.5235342379739
6.93011158332229,2.88837893664837,16.1408224868774,0.104711937904358,16.3975561601265
6.94010058348067,2.12363139554858,15.2098510301113,-1.72779960036278,15.4542767582748
6.95009058341384,1.64078484535217,13.6256765878201,-4.04794202685356,14.3086362745501
6.96007958333939,1.25053801819682,12.2049072647095,-5.26903829097748,13.3523919649964
6.97006858349778,0.70775831155479,11.2949354982376,-5.03494793593884,12.3865729907242
6.98005858343095,0.402038541510701,10.7521875858307,-4.12599124610424,11.5236702761178
6.9900475833565,0.215176001116633,10.3698872709274,-2.79072224915028,10.7409959219386
7.00003758328967,-0.260994344428182,10.0149145030975,-1.06875933945179,10.0751613921486
7.01002658344805,-1.05244831211865,9.62587527215481,0.848228677511215,9.72031964979111
7.02001658338122,-2.23765180841088,9.11827848136425,3.07369708120823,9.87915491458773
7.03000558330677,-3.17839732468128,9.08075631380081,3.92038911044598,10.3890228395878
7.03999458346516,-4.01981662720442,9.05963032364845,3.6633250451088,10.5667297544529
7.04998458339833,-4.47030132383108,9.10272371828556,3.56335929214954,10.7489861132217
7.05997358332388,-4.07419310152531,9.31095827043057,3.03259583294392,10.6061128990882
7.06996358348988,-3.06732420086861,9.04914918959141,3.20884143769741,10.0792977027668
7.07995258341543,-1.83450982421637,7.39999522447586,3.70708034455776,8.47748785303868
7.08994158334099,-0.846602420657873,3.52277259886265,3.75645715713501,5.21896855857095
7.09993158350699,0.865310294777155,-4.11146734714508,4.18326589286327,5.92896611419569
7.10992058343254,3.09568202733994,-17.6077240025997,5.9881814968586,18.8540051290287
7.11991058336571,2.89895421087742,-38.9746767425537,8.32734023809433,39.9596541294379
7.12989958329126,3.91060876518488,-46.5833076381683,5.45793317735195,47.0647048858804
7.13988958345726,2.40407423704863,-20.1818542742729,-5.54201730787754,21.0665794738027
7.14987858338282,-0.109211955070496,-8.19978381335735,-13.4509208536148,15.7535917697247
7.15986858331598,-1.75160244584084,-10.146064041853,-12.4281714999676,16.1390883727137
7.16985758347437,-1.23579441010952,-15.8541697561741,-4.24102556616068,16.4580735304735
7.17984658339992,2.21239461421967,-21.1190436601639,1.931676222682,21.3222904041337
7.18983658333309,5.36914963960648,-23.1185528469086,6.87745879769325,24.7102143475478
7.19982558349147,7.29107270658016,-18.2517433512211,9.14971720576286,21.6795572260347
7.20981558342464,7.10033243894577,-12.2567206120491,7.49577670991421,16.0258725001251
7.2198045833502,5.32772328615189,-10.654194098711,4.45829377412796,12.7189964495333
7.22979358350858,3.96729752093554,-10.0501077246666,2.77391501247883,11.1552104145767
7.23978358344175,3.17615491747856,-8.74128451466561,1.40116229340434,9.40538520203261
7.2497725833673,2.08671953111887,-7.19675828754902,-0.251237899661064,7.49738946121812
7.25976258330047,0.688208072930574,-5.25641532182694,-1.46492106378078,5.49995691894877
7.26975158345886,-0.547887907326222,-3.06301948070526,-2.55838138103485,4.02834764996767
7.27974158339202,-1.53326361268759,-0.781062296032906,-3.21443313002586,3.64603016494431
7.28973058331758,-1.74043821081519,1.28680318057537,-2.42074318706989,3.24730429263255
7.29971958347596,-1.17985738702118,3.08273570716381,-0.702438222393394,3.37472107739446
7.30970958340913,-0.78349678426981,4.91882749557495,1.52061228454113,5.20778195224058
7.31969858333468,-0.472443439923227,6.8723734742403,3.45402045249939,7.70603511928491
7.32968858350068,-0.0201152258366346,8.87104533970356,4.78675643563271,10.0801233730276
7.33967758342624,-0.306933432742953,10.5699287045002,4.8090091842413,11.6165472617499
7.34966758335941,-0.466347827240825,12.2723443722725,3.80907858967781,12.8583434543476
7.35965658328496,-0.491003927662969,13.708742133379,2.94967120528221,14.0310817813785
7.36964558344334,-0.0576562872156501,14.9708624625206,2.23865796804428,15.1374250325824
7.37963558337651,0.277926492244005,15.7804971778393,1.47825154602528,15.8520207528318
7.38962458330207,0.405627379752696,16.1299256157875,0.296415241956711,16.1377475484563
7.39961458346807,0.362462722174823,15.6900068378449,-1.39437557637692,15.7560139960772
7.40960358339362,0.450500082112849,14.6083573114872,-3.20920630395412,14.9634908616073
7.41959358332679,0.351700373589993,13.0959773218632,-4.38269629240036,13.8143527520821
7.42958258348517,0.0151456772536039,11.4736696779728,-4.78297153294087,12.4306935428275
7.43957158341073,-0.634561258032918,10.4529481387138,-4.68856706678867,11.4738595912889
7.44956158334389,-1.46197128966451,9.9312735915184,-3.82354460120201,10.741836366226
7.45955058350228,-2.14968059509993,9.57410987198353,-2.23958065867424,10.0648113757024
7.46954058343545,-2.57371745824814,9.40831908881664,-0.670573382154107,9.77702195419119
7.479529583361,-2.58812792122364,9.31113193273544,0.830951909422874,9.69979716701316
7.48951958329417,-2.09718400061131,9.41132104933262,2.33388338327408,9.92059253637373
7.49950858345255,-1.32687356472015,9.89161543607712,3.22763438880444,10.4891502582328
7.50949758337811,-0.561756406500936,10.5479115986824,3.53800108730793,11.1396346909428
7.51948758331128,0.0442507047951222,11.0028390097618,3.46772398710251,11.536443734979
7.52947658346966,0.937961218357086,11.1123374783993,2.98106022834778,11.5434195785311
7.53946658340283,1.73267588585615,10.37656011343,3.01017994701862,10.9424105583042
7.54945558332838,1.95625645548105,7.5960143584013,3.0494983792305,8.41580737764235
7.55944458348677,2.58202313572168,2.6137849187851,2.67290787041187,4.54347351249902
7.56943458341993,2.91497324287891,-5.85295177102089,1.8582743704319,6.79759494795039
7.57942358334549,0.688970403671265,-22.5164533567429,3.12499704301357,22.7427122063828
7.58941358327866,-4.28122955918312,-49.2407689189911,7.28178557395935,49.9600505545884
7.59940258343704,-3.41747886300087,-43.6484918689728,2.08739429980516,43.8318060223133
7.60939258337021,-1.76943162962794,-11.0479280591011,-10.5959616780281,15.4098022885838
7.61938158329576,-0.04379798412323,-3.23740450143814,-11.515809391737,11.9622979446327
7.62937058345415,3.21555374890566,-7.50680748224259,-3.4163006490469,8.85229092451399
7.63936058338732,4.85954900801182,-16.9666153979301,4.55924127459526,18.2282181143008
7.64934958331287,4.82046271026135,-23.1384708023071,10.9228993856907,26.037193066845
7.65933958347887,4.69698179483414,-22.1989121246338,10.5567607748508,25.0259572355514
7.66932858340442,2.60655805259943,-16.4549910449982,5.90992470145226,17.6773325235844
7.67931858333759,1.58113579049706,-12.6142988991737,2.58891729533672,12.9739361747999
7.68930758349597,1.38089306652546,-11.4165564143658,0.454526876807213,11.508745401012
7.69929658342153,1.43686904668808,-10.8568527460098,-0.38014049962163,10.9581180412206
7.7092865833547,1.20305343769491,-9.58561894655228,-0.457250948399305,9.67163412212557
7.71927558328025,0.853287323042751,-7.56964107692242,-0.722580053061247,7.65177673629979
7.72926558344625,0.766250275522471,-5.2348396807909,-1.2652651078999,5.43981449698335
7.7392545833718,0.72213851518929,-2.7415343016386,-1.56163123324513,3.23669375610786
7.74924458330497,0.420629982948303,-0.206116690635681,-1.29017059206963,1.37257197601983
7.75923358346336,-0.0207843665778637,2.03068069338799,-0.237573541402817,2.04463621604613
7.76922258338891,-0.229734983369708,4.14259149134159,1.72597409963608,4.49364317890664
7.77921258332208,-0.186980434879661,6.10259688913822,3.31540752768517,6.94755910726773
7.78920158348046,-0.23853233858943,7.71930173099041,3.57167286336422,8.50889910232322
7.79919158341363,-0.265886453948915,9.17244065523148,2.61200034856796,9.5408023248077
7.80918058333918,-0.298229779154062,10.5151812243462,1.82220582067966,10.6760672176104
7.81916958349757,-0.283723970018327,11.8880115652084,1.78931698679924,12.0252639698653
7.82915958343074,-0.273611758723855,13.1461359071732,1.52677349567413,13.2373256359233
7.83914858335629,0.00883850499987602,14.2520338368416,0.959337469339371,14.284287696127
7.84913858328946,0.51601137265563,14.8529966282845,0.232004653215408,14.863768120354
7.85912758344784,0.605971150919795,14.8956275081635,-0.748624282479286,14.926733005384
7.86911758338101,0.668712286502123,14.4628224527836,-1.98738147675991,14.6140375857266
7.87910658330657,0.77519286096096,13.6493192195892,-3.05118062317371,14.0076601302703
7.88909558346495,0.751637645065785,12.6142708325386,-3.61177774608135,13.1426681565504
7.89908558339812,0.638281183540821,11.6402124130726,-3.62267695605755,12.2076097668078
7.90907458332367,0.624858388379216,10.95055788517,-3.06720842599869,11.3891585962486
7.91906458348967,0.529138262160122,10.4830531132221,-2.16258686184883,10.7168638980888
7.92905358341523,0.247213041856885,10.107618598938,-0.96599861741066,10.156683580702
7.93904358334839,-0.158548421859741,9.9704335641861,0.51693355165422,9.9850840435496
7.94903258350678,-0.662929390221834,10.0210049629211,1.18002074360847,10.1119960837936
7.95902158343233,-1.45665163904429,9.95848419427872,1.21454445898533,10.1374730425329
7.9690115833655,-2.335869974792,9.97767007827759,1.22766853451729,10.3207247207129
7.97900058329105,-2.85347339808941,10.0752425658703,0.884520590901375,10.5088153409629
7.98899058345705,-3.15732746779919,10.1220963048935,0.595175802111626,10.6197826992777
7.99897958338261,-3.15087214171886,10.0878947710991,1.00899187847972,10.6165757557259
8.00896858330816,-2.98181071847677,9.47730980157852,2.24655814111233,10.1861484240766
8.01895858347416,-2.26196818560362,7.69510244429112,3.28386296868324,8.66688281320955
8.02894758339971,-0.968579432219267,3.93204728901386,4.02807786583901,5.71179072557999
8.03893758333288,1.15438362658024,-3.66254502654076,5.0254795396328,6.32473574404677
8.04892658349127,1.4914653763175,-19.6834189009666,7.39272479653359,21.0787530114323
8.05891658342443,-2.89221763372421,-46.3869487810135,11.3061036801338,47.8324358618619
8.06890558334999,-0.610667707622051,-53.3991870689392,9.94560862541199,54.3209096536736
8.07889458350837,3.33368943214417,-21.3378534865379,-2.68431900411844,21.76288228059
8.08888458344154,3.69716755986214,-9.09538780152798,-12.5152786409855,15.9068327044509
8.09887358336709,4.00079738885164,-14.0532612490654,-11.3824624693394,18.5219054998951
8.10886358330026,6.61627478420734,-22.1430174207687,-4.52030525028706,23.5482795989936
8.11885258345865,7.89859198093414,-23.9938997411728,0.0781052063405514,25.2606627089233
8.12884258339182,6.42866628527641,-18.3237868952751,2.36005055040121,19.5616654452364
8.13883158331737,4.419821434021,-13.3664531457424,3.1727068144083,14.4313187109201
8.14882058347575,2.87145709455013,-11.6077194356918,4.12370673894882,12.6486905888488
8.15881058340892,1.72726896554232,-10.768653345108,4.18039023220539,11.6800263458586
8.16879958333448,0.401869118437171,-9.72985513865948,2.69311526298523,10.1036849528959
8.17878958350048,-0.939947225153446,-7.56258991956711,1.2423210722208,7.72137479495042
8.18877858342603,-2.06366293653846,-4.76992990314961,0.393622205480933,5.21208925837336
8.1987685833592,-2.63610198676586,-1.73244228959084,-0.0388132327795029,3.15466265049568
8.20875758328475,-2.49331298053265,1.00496153891087,-0.223313351869583,2.69748515597508
8.21874658344314,-2.06566809296608,3.29492590069771,0.172849541902542,3.89273661137286
8.2287365833763,-0.838093698620796,5.08079653859139,0.440055639334023,5.16822440301694
8.23872558330186,0.246651416793466,6.64817660808563,0.924199211597443,6.71663854293355
8.24871558346786,1.26686315193772,8.22560277879238,1.44829859912395,8.44766548535386
8.25870458339341,1.83294700965285,9.65510725736618,1.98241368234158,10.0255052191586
8.26869358331896,1.72495770737529,11.2106432068348,2.64420739710331,11.6467091043814
8.27868358348496,1.78473013848066,12.8493335795403,3.08265501558781,13.3339190432007
8.28867258341052,2.00334627583623,14.3872822737694,3.48122462332249,14.9374098291522
8.29866258334369,2.38184750854969,15.6988571834564,3.38138341605663,16.2345639986705
8.30865158350207,2.26277729406953,16.1942099046707,2.26710876524448,16.507948923853
8.31864158343524,1.63367053806782,16.2535860407352,0.654430900812149,16.3485845997283
8.32863058336079,0.930315691530705,15.9574175512791,-1.07198466360569,16.0204186371887
8.33861958328635,0.381678573153913,15.1548720002174,-2.62079923868179,15.3845510992571
8.34860958345234,-0.188289991915226,13.839861266613,-3.99260339319706,14.4054883587999
8.3585985833779,-0.747515284940601,12.3301125240326,-4.5048896509409,13.1485544727806
8.36858858331107,-1.17040353566408,11.0785510969162,-3.85947223305702,11.7898119052433
8.37857758346945,-1.43814198553562,10.2842524588108,-2.69752991080284,10.7289686655704
8.388566583395,-1.38822547495365,9.85162048101425,-1.29782225847244,10.0332416838147
8.39855658332817,-1.37706255555153,9.32450919270516,0.54964528799057,9.44165678836905
8.40854558348656,-1.30630890727043,8.96107901215553,1.83314946949482,9.23947060176164
8.41853558341973,-1.10381310492754,8.72149052023888,1.69183045327663,8.95237904402291
8.42852458334528,-1.18982001923025,8.42762349486351,1.71674251556396,8.68260987918272
8.43851458351128,-1.26667837992311,8.54455611348152,1.78521224141121,8.8204816218551
8.44850358343683,-1.08506510429084,8.76602466881275,1.49979268848896,8.95934890955969
8.45849258336239,-1.06992878258228,8.79530694007874,0.941286018267274,8.91000511437455
8.46848258329555,-0.929231033027172,8.43956117033959,1.041210109815,8.55416749622226
8.47847158345394,-0.351907949745655,6.71710241675377,1.94663573920727,7.00233495224361
8.48846158338711,0.61882004186511,3.03132698714733,3.0551245701313,4.34806482084175
8.49845058331266,2.27112053990364,-4.63395582675934,4.63106788694859,6.93385353787167
8.50844058347866,1.23847082689405,-19.7531995725632,7.40523082137108,21.1319697818344
8.51842958340421,-3.20231214433908,-45.6784065771103,11.2847905790806,47.1605569189686
8.52841858332977,-2.69278577238321,-51.031803817749,9.04494679570198,51.8970823712302
8.53840858349577,0.639699133336544,-19.6683892178535,-3.38721601366997,19.9681742212309
8.54839758342132,1.14749794542789,-8.98361593544483,-12.5456818234921,15.4730811161397
8.55838758335449,1.48408999085426,-14.3972318959236,-12.0896434414387,18.8584805301773
8.56837658328004,5.02080878376961,-22.1830147147179,-4.77975205600262,23.2409270984061
8.57836558343843,9.31338778853417,-22.4244158434868,0.641833367049694,24.2900302200779
8.5883555833716,12.1774557566643,-16.0340885818005,4.12413417041302,20.5521509339073
8.59834458329715,9.68629455149174,-11.7435841691494,6.0504923504591,16.3812248919035
8.60833458346315,4.72320831120014,-10.8328534340858,6.29230687737465,13.3885225515899
8.6183235833887,1.11723582699895,-10.3283849036694,3.80230692923069,11.062607676111
8.62831358332187,-0.554107444435358,-9.31498232424259,1.90661681056023,9.52423846946524
8.63830258348025,-2.22063787266612,-7.96456669986248,0.986915861964226,8.32703778042793
8.64829158340581,-3.38018678337336,-6.05733066916466,0.185087179541588,6.93910475422625
8.65828158333898,-3.90375144302845,-3.57149569272995,0.051524567976594,5.29126748456742
8.66827058349736,-3.66910414069891,-1.09772527635098,0.406363361477852,3.85129292046
8.67826058343053,-2.32140162438154,1.06090068161488,0.470202092528343,2.59528529563711
8.68824958335608,-0.928957383334637,3.12840655446053,0.925251198783517,3.39204645765559
8.69823958328925,0.783340078890324,4.8077877008915,1.7518521219492,5.17662342779706
8.70822858344764,1.95008618116379,6.20788828611374,2.57659604251385,6.99853986579573
8.71821758337319,2.0060808724165,7.74820042490959,2.45364839315414,8.37134163252656
8.72820758330636,1.73379504293203,9.18349657058716,1.88203219234943,9.53334672011468
8.73819658346474,1.61153297960758,10.7906669425964,1.41454671621323,11.0016577852047
8.74818658339791,1.84596276551485,12.4327054309845,1.46416267991066,12.6539920664801
8.75817558332346,2.18059131592512,13.5191812491417,1.51668354034424,13.7776474441678
8.76816458348185,2.44505386322737,14.5765332555771,1.56048620223999,14.8623257713054
8.77815458341502,2.6163775742054,15.4464071559906,1.36946292936802,15.7261678216391
8.78814358334057,2.44451708883047,15.9402933955193,0.649140924811363,16.13970263893
8.79813358350657,1.97603890165687,15.7417769157887,-0.792695916295052,15.8851073972771
8.80812258343212,1.39287561938167,15.0688115108013,-2.29787096679211,15.306514750888
8.81811158335768,0.636259216368198,14.0472210752964,-3.3089966404438,14.4457157834125
8.82810158329085,-0.210234007537365,12.8171388101578,-3.5934899944067,13.3130167864643
8.83809058344923,-1.05036758042872,11.6613360643387,-3.21814026474953,12.1427532966401
8.8480805833824,-1.64007353156805,10.5810349059105,-2.24101790428162,10.9393922187824
8.85806958330795,-2.04527826726437,9.71761340796948,-1.31458856463432,10.0171511235261
8.86805904167704,-2.23486137092114,9.039283182621,-0.343542630672455,9.31779305103627
8.87804804183543,-2.40751269221306,8.45659527897835,1.28689088881016,8.88629333497991
8.88803704176098,-2.53283460348845,8.35592084348202,2.37455135285854,9.04848928819215
8.89802704169415,-2.56320007145405,8.49628617882729,2.08245194077492,9.11556249084338
8.9080160416197,-2.26444477379322,8.73622082591057,1.95476044535637,9.23419475922848
8.9180060417857,-1.57009244665504,9.15816818654537,1.60055249333382,9.42862678803293
8.92799504171126,-1.16894370518625,9.39177322268486,1.85229266881943,9.64379706252662
8.93798404163681,-0.877232913672924,8.7150696927309,2.76458402574062,9.18503686271144
8.94797404180281,-0.438566755503416,5.87155644178391,3.51791473209858,6.85880746999091
8.95796304172836,0.55829697445035,-0.128281479477882,4.20714241325855,4.24596266294187
8.96795304166153,1.84589186802506,-12.5920420575142,5.91857682645321,14.0355403037174
8.97794204181992,-0.874842425733805,-35.9547582578659,9.11232776999474,37.1018127325237
8.98793204175308,-0.811290500611067,-59.2451023006439,10.3788475441933,60.1528121972344
8.99792104167864,3.14047169923782,-34.3356548881531,-2.27644618391991,34.5540441384268
9.00791004183702,4.41308778047562,-9.82875319004059,-15.5328547310829,18.9036850673577
9.01790004177019,3.80668883264065,-8.09554374575615,-13.8105936133862,16.454823133723
9.02788904169574,3.20779946386814,-14.5264132618904,-4.27551858365536,15.478589044703
9.03787904162891,4.51267375677824,-20.5603866434097,3.72448750555515,21.3767521045797
9.0478680417873,5.71806527674198,-22.5284565210342,8.91792071342468,24.8949178263384
9.05785804172047,4.16002438008785,-18.2959833848476,8.69986751675606,20.6817916455672
9.06784704164602,1.1215202280879,-13.0620295572281,5.39241103291512,14.1757723078432
9.0778360418044,0.050196446031332,-9.82044078826904,4.09347663402557,10.6395548737908
9.08782604173757,-0.0134170210361481,-7.97953732609749,3.6064485937357,8.7566927212444
9.09781504166313,0.137375946342945,-6.45366079330444,3.10692739248276,7.16391007815064
9.10780504182912,-0.200833292752504,-4.72873626887798,1.9070664614439,5.10276231079246
9.11779404175468,-0.998844912797213,-2.76436300098896,0.750939268246293,3.03369473507996
9.12778304168023,-1.22365939110518,-0.739592088460922,-0.384515167102218,1.48060483468261
9.1377730416134,-1.41044767186046,1.32331845760345,-1.13319280542433,2.24157540795665
9.14776204177178,-0.729521867483854,3.13575007259846,-0.733814454674721,3.30206213249053
9.15775204170495,0.0527374266833067,4.78921051204205,-0.20499230761081,4.79388573195136
9.16774104163051,0.421604238711298,6.47205204069615,0.463623974919319,6.50231919715562
9.17773104179651,0.423683654777706,8.24307835221291,1.41098049938679,8.37369181004989
9.18772004172206,0.618117718175054,10.0275374722481,2.26503592729569,10.2987360886082
9.19770904164761,0.880751914232969,11.8142723286152,2.73573444843292,12.1588238560089
9.20769904181361,1.10954805403948,13.4617382025719,2.22984153628349,13.6902040012463
9.21768804173917,1.70457153618336,14.8908351302147,1.54202127993107,15.0671949819787
9.22767804167233,2.28541259676218,16.0379793190956,1.6916526979208,16.2880809252521
9.23766704183072,2.50183675915003,16.6261858248711,1.38465750396252,16.8702850792705
9.24765604175627,1.99679213181138,16.4697143340111,-0.0226737481355667,16.590334027995
9.25764604168944,1.41136904686689,15.5046641349793,-1.85533614456654,15.6789299613941
9.26763504161499,1.04416492715478,14.067963488102,-3.54913301646709,14.5462786397844
9.27762504178099,0.569249942265451,12.7427949714661,-4.36404601335526,13.48138593722
9.28761404170655,0.164377291873097,11.6482570123673,-4.05136206328869,12.3337928427593
9.29760404163972,-0.103913646787405,10.8865203487873,-3.01156690657139,11.2958690937575
9.3075930417981,-0.279286993145943,10.3416405415535,-1.84568180680275,10.5087616609763
9.31758204172365,-0.495528064593673,9.78088028132916,-0.493517353311181,9.80585164677259
9.32757204165682,-0.894269288107753,9.21775482237339,1.29668497502804,9.35136960287123
9.33756104181521,-1.27289703994989,9.11937658846378,1.82852315247059,9.38758718498292
9.34755104174838,-1.85329868227243,8.85052453637123,1.35967410564423,9.14413551125427
9.35754004167393,-2.6496201646328,8.31093704402447,1.42043427765369,8.83797460415567
9.36752904183231,-2.83503244936466,7.83597297906876,1.04312288023531,8.39809423982112
9.37751904176548,-2.8533523607254,7.53431278467178,0.284709847122431,8.06154752691903
9.38750804169104,-2.70075815856457,7.57982751131058,-0.202973666042089,8.04916629480224
9.3974980416242,-2.58152846127749,7.53294453620911,0.364153992757201,7.97133305742706
9.40748704178259,-2.31311582744122,6.4636419904232,1.72589340806007,7.07869201671512
9.41747704171576,-1.70123906180263,3.32147869169712,2.9978627872467,4.78681693152764
9.42746604164131,-0.235496025681496,-3.31995607674122,4.50745891749859,5.60310205355393
9.43745504179969,0.322829600125551,-15.7543694794178,6.34113697528839,16.9857114888985
9.44744504173286,-1.33358982279897,-35.3491036605835,6.52051668763161,35.9701922332344
9.45743404165842,1.59829444482923,-48.2567947912216,5.33062233567238,48.5766232167286
9.46742404182442,2.47199900239706,-29.9323951077461,-1.53459210008383,30.0734771662293
9.47741304174997,1.7280464990437,-13.7176287317276,-6.66094517290592,15.3469108722516
9.48740204167552,3.26620028436184,-12.4699779224396,-7.9343909740448,15.1368085742239
9.49739204184152,3.76784285545349,-16.1151859545708,-4.9203039175272,17.2657246814207
9.50738104176708,4.87024298071861,-19.2060989928246,-0.112661958485842,19.8142927688652
9.51737104170024,5.93449587106705,-20.3749199795723,3.678736551404,21.5380757736693
9.5273600416258,6.69650735378265,-18.1916936159134,6.09252622961998,20.319936102585
9.5373500417918,6.46786075651646,-14.4668207788467,7.10649540424347,17.3673372496618
9.54733904171735,5.0295831155777,-11.2981865501404,6.52936878740788,13.9849341221278
9.5573280416429,2.75078985929489,-8.74930747926235,5.16203658342362,10.5244405031944
9.5673180418089,0.889069139957428,-6.34468389630318,3.76874391138554,7.43295959556078
9.57730704173446,-0.797589304894209,-4.24609714865685,2.39949732899666,4.94197097593415
9.58729704166763,-1.53446199953556,-2.52285954594612,0.866535798087716,3.0773817127483
9.59728604182601,-1.39503484994173,-0.850738302469254,-0.788958449140191,1.81447880293761
9.60727504175156,-1.0453355397284,0.841113785505295,-2.25725211381912,2.6259066807728
9.61726504168473,-0.719426064938307,2.52490431725979,-3.25826502799988,4.18437649679337
9.62725404184312,-0.612411347329617,4.20257573783398,-3.13268262326717,5.27734695739147
9.63724404177629,-0.376318320930004,5.76421501100063,-1.7782721811533,6.04400877911145
9.64723304170184,-0.0144774135947227,7.42401967942715,-0.0101320918276906,7.42404070943248
9.65722304163501,0.488104585781693,9.15771151900291,1.30440096080303,9.26301183301002
9.66721204179339,0.937071856856346,10.9541293644905,2.03762133836746,11.1813663976044
9.67720104171895,1.05315728701651,12.8954517388344,2.62977705359459,13.2029369146192
9.68719104165211,1.2662107488513,14.4091836047173,3.0798302257061,14.788955880458
9.6971800418105,1.8043203574419,15.3638035404682,2.44200483262539,15.6609520395456
9.70717004174367,1.60738642662764,16.0898838829994,1.33219570040703,16.2247588542047
9.71715904166922,1.07511716321111,16.2210287439823,-0.336255903616548,16.260095893335
9.7271480418276,0.331516516059637,15.6687627339363,-2.17289199471474,15.8221834281336
9.73713804176077,-0.283622886277735,14.5357875180244,-3.71845376372337,15.0065472079264
9.74712704168633,-0.583315054066479,13.0800319647789,-4.70873528301716,13.9140102277334
9.7571170416195,-0.646025966852903,11.8822625827789,-4.56966919898987,12.7470541782858
9.76710604177788,-0.598471694849432,11.0270511603355,-3.64421400547028,11.6290292535473
9.77709604171105,-0.711488981321454,10.4193196320534,-2.40307816386223,10.7164930283683
9.7870850416366,-0.944039179757238,9.86532986283302,-1.01820131622255,9.96256378628409
9.79707404179499,-1.22502983227372,9.27287301599979,0.424213156700134,9.36305659830887
9.80706404172815,-1.59258361548185,8.83616202056408,1.79531623005867,9.15626791830997
9.81705304165371,-2.05730160444975,8.6705881690979,2.84550481259823,9.35459709064435
9.82704304181971,-2.29747277140617,8.69141887485981,3.00200553953648,9.4779312327654
9.83703204174526,-2.44131252229214,8.70498967766762,2.78951187551022,9.46140732784572
9.84702104167081,-2.3571114474535,8.99314806640148,2.80251140534878,9.71013680114997
9.85701104183681,-2.02754000768065,9.23173083722591,2.98989449411631,9.91338700039903
9.86700004176237,-1.2696968588233,8.19398337543011,3.2850043451786,8.91878619644922
9.87699004169554,-0.0942875949293375,4.6285354578495,3.1077629595995,5.57587851806209
9.88697904162109,1.969202337116,-2.56348600029945,3.08880102396011,4.47100772576513
9.89696904178709,2.87255403220654,-16.8269219076633,4.3710679346323,17.6210982190021
9.90695804171264,-0.832371759563685,-42.4982743835449,7.3492659509182,43.137082404151
9.9169470416382,0.223466110378504,-51.658218369484,9.31034080445767,52.4909888276733
9.92693704180419,2.88259487092495,-19.5243407213688,-2.03041435271502,19.8401566585976
9.93692604172975,2.10631398931146,-6.45549857318401,-12.1871668124199,13.9512384885249
9.94691604166292,2.9577339309454,-8.05568795442581,-11.4581254398823,14.3154090762864
9.9569050418213,4.42667670965195,-16.7943306970596,-5.00992886960507,18.0760725140302
9.96689404174686,5.347372854352,-23.2075942468643,0.687035560011864,23.8255922283429
9.97688404168002,5.89423486769199,-23.6770812249184,5.74126936733723,25.0660797484414
9.98687304183841,4.5817758589983,-16.8788533687592,7.86434016108513,19.1764492864406
9.99686304177158,2.19715589314699,-11.5476825642586,6.12837200045586,13.2564478650822
10.0068520416971,0.880853144153953,-10.1305478703976,4.34142196655273,11.0567557225277
10.0168420416303,0.892738048508763,-9.39444656968117,3.27278541862965,9.98817961243411
10.0268310417887,0.771271937415004,-8.72461293339729,1.88737055405974,8.95968184967407
10.0368200417142,0.299015864208341,-7.00402821242809,0.742606181949377,7.04963017675441
10.0468100416474,-0.13324905462563,-4.5315435987711,-0.403591635078192,4.55143152272195
10.0567990418058,-0.10520200766623,-1.81863141775131,-1.6863410872221,2.48238473216836
10.066789041739,0.104814337268472,0.66612416267395,-2.73800433754921,2.81981829163395
10.0767780416645,0.279898721538484,2.96425416111946,-2.73137944221497,4.04049250505275
10.0867670418229,0.49125678319484,4.99436241209507,-1.31934059679508,5.18899303726018
10.0967570417561,0.585062896460295,6.65423315405846,1.09366087675095,6.76884122835814
10.1067460416816,0.442743092738092,8.11948049247265,3.03140709400177,8.67821490188941
10.1167360416148,-0.183231931105256,9.57532667756081,3.88185245096684,10.3338876214937
10.1267250417732,-1.12448374316096,11.1186735212803,4.34275922477245,11.9895338627404
10.1367150417063,-1.25043539956212,13.1079699611664,5.14000193595886,14.1351365431318
10.1467040416319,-1.02949908703566,14.8493736934662,4.64774706959724,15.5937590170351
10.1566930417903,-1.05152116298676,15.6254828131199,2.64091249108315,15.8819340347728
10.1666830417234,-0.916427384912968,15.7417582046986,0.414222019314766,15.7738508427175
10.176672041649,-0.255268604680896,15.3096618318558,-1.10873324453831,15.3518792619621
10.186662041815,0.571312511041761,14.2896852278709,-2.2663480424881,14.4795661311586
10.1966510417406,1.06369967065752,13.0610706138611,-3.13766795933247,13.47471642717
10.2066400416661,1.47366732895374,11.8356041407585,-3.51103489816189,12.4330441497357
10.2166300418321,1.63735574573278,10.6715041959286,-3.40355021059513,11.3201629704633
10.2266190417577,1.28169695332646,9.78622229754925,-2.96151824891567,10.3045370723714
10.2366090416908,0.885860407277942,9.34736011147499,-2.37840934574604,9.68579995306059
10.2465980416164,0.512414604127407,9.21416287779808,-1.24976223886013,9.31264043753413
10.2565870417748,-0.0367577172070742,9.11824749112129,0.344085837006569,9.12481142283733
10.2665770417079,-0.673690605908632,9.12080564796925,1.59693949878216,9.28402770694314
10.2765660416335,-1.38826231241226,9.300459010005,2.21198764801025,9.66016042308808
10.2865560417995,-2.08028335466981,9.72363662481308,2.17741832435131,10.1792847787231
10.296545041725,-2.54377503633499,10.1222483325005,1.95839668259025,10.6191346307818
10.3065350416582,-2.71997093975544,10.5773184156418,2.18646162807941,11.1381560965024
10.3165240418166,-2.64711931049824,10.9059623408318,2.8276187646389,11.5733609250637
10.3265130417421,-2.50499103963375,10.182072365284,3.46096811413765,11.0420957271526
10.3365030416753,-1.79564776718617,7.57355929613113,3.81161745071411,8.66669365481458
10.3464920418337,0.640770050883293,1.63115272700787,4.0344191712141,4.39861154524858
10.3564820417669,4.45891357898712,-10.8845767343044,5.21781843602657,12.867849479271
10.3664710416924,2.99764731734991,-34.9653415417671,7.56799859404564,35.9003565621724
10.376460041618,-0.237354270815849,-60.9812949943543,8.73249556481838,61.6038241915865
10.386450041784,2.44336299464107,-35.7475235795975,-0.529427662789822,35.8348400086785
10.3964390417095,2.25782104790211,-7.94461775422096,-13.1876113772392,15.5604563230685
10.4064290416427,1.34197765365243,-4.14005964696407,-13.3165296185017,14.0096737643585
10.4164180418011,1.45323438003659,-11.8208445990086,-4.30623868525028,12.6644363795463
10.4264080417342,3.46853908896446,-20.0153606557846,3.43198522031307,20.6015520809781
10.4363970416598,5.32977682828903,-22.5086601877213,9.32666681528091,24.9405897758841
10.4463860418182,4.90792653143406,-19.0896154403687,10.9262755680084,22.5362964634204
10.4563760417514,2.64507980167866,-14.5606756067276,6.37339664876461,16.1130352858822
10.4663650416769,1.22944959640503,-11.01203551054,1.76197365224361,11.2196712762316
10.4763550418429,0.935262216702104,-8.62195629179478,0.117606364041567,8.67333136507958
10.4863440417685,1.09727145932615,-6.90812218129635,0.178400888442993,6.99699818523398
10.496333041694,0.797261495366693,-4.96200625956059,0.203289488777518,5.02975731304804
10.5063230416272,0.228865210041404,-2.5929892963171,-0.303909691348672,2.62075063210485
10.5163120417856,-0.145046616196632,-0.200638434290886,-1.08231676675379,1.11027198729914
10.5263020417187,-0.663179066330195,1.96850900352001,-1.92618466392159,2.83284689499533
10.5362910416443,-0.781517355591059,3.65487991154194,-2.40488378405571,4.44436525948273
10.5462810418103,-0.550183085650206,5.03844515562058,-2.48731958448887,5.64582941022078
10.5562700417358,-0.0619338543713093,6.247116086483,-1.29906069874764,6.38105429371532
10.5662590416614,0.0756010631471872,7.3873254776001,0.539683386683464,7.40739842256447
10.5762490418274,-0.297721911929548,8.76765487253666,1.96871073246002,8.99089718820442
10.586238041753,-0.832499082684517,10.2398264837265,2.94577695965767,10.68759575562
10.5962280416861,-1.10986511930823,11.9657701778412,3.50295287668705,12.5172734806051
10.6062170418445,-1.14268700256944,13.6545793747902,3.18038654744625,14.066560705427
10.6162060417701,-0.838940813988447,15.1746122002602,2.74794109582901,15.4442176034853
10.6261960417032,-0.716225006729364,16.1000276327133,2.59228470683098,16.3231065681649
10.6361850416288,-1.330813126266,16.1193561887741,1.64610522687435,16.2577479970491
10.6461750417948,-0.970148824900389,15.1217627263069,-0.232317479252815,15.1546319026345
10.6561640417203,-0.580522606596351,13.6291182589531,-1.90620750546455,13.7740153211468
10.6661530416459,-0.538781563304365,12.4850473666191,-2.73203199148178,12.7918212980857
10.6761430418119,-0.352886554375291,11.5896328282356,-2.84463767051697,11.9388475779742
10.6861320417374,0.0477747120335698,10.9837209534645,-2.153707280159,11.1929827774055
10.6961220416706,0.428181735053659,10.6631064248085,-1.15689675986767,10.7342250925727
10.706111041829,0.676865205466747,10.5348524272442,-0.382255291342735,10.5634928540679
10.7161010417622,0.839692692831159,10.4213287353516,0.0619758081436157,10.4552865780644
10.7260900416877,0.719859855249524,10.3099345993996,0.433965727686882,10.3441421059411
10.7360790416133,0.044218252748251,10.2095612955093,1.0540963498503,10.2639279135917
10.7460690417793,-0.998944827094674,10.1013293337822,1.78381709575653,10.306151003562
10.7560580417048,-1.85479469239712,10.0556894767284,2.07891496002674,10.4345120448613
10.766048041638,-1.62125660687685,10.0718780779839,2.30508292257786,10.4587096853806
10.7760370417964,-0.775086514726281,9.40889971733093,2.64365483522415,9.80393104238829
10.7860270417295,0.144113473668695,7.06973571360111,3.09571067869663,7.71915515841315
10.7960160416551,1.51123364299536,0.551126972436905,4.16043485462666,4.46058137949089
10.8060050418135,2.04205937504768,-15.4012479400635,6.66725841164589,16.906234924731
10.8159950417466,-2.49610853433609,-46.6385989093781,10.8963062489033,47.9595554182367
10.8259840416722,-0.256110092103481,-62.0422231578827,12.4258595108986,63.2748372683517
10.8359740418382,6.50040226578713,-27.052868270874,-1.31583884552121,27.8539825368958
10.8459630417638,4.99811573982239,-9.080197904706,-15.3967186868191,18.5604445328858
10.8559520416893,5.23581675052643,-8.50318296968937,-17.0237169671059,19.7363835855822
10.8659424167126,7.36068147003651,-16.1966914629936,-8.55373156428337,19.7402829190609
10.8759314166382,7.56425286769867,-22.405077931881,-1.5460453337431,23.6980103543343
10.8859214168042,7.19636944770813,-22.0904299020767,3.60929034054279,23.5117375633705
10.8959104167297,4.64293130278587,-17.2939659190178,6.29011417150498,18.9790306544119
10.9059004166629,1.53502099335194,-13.2495965409279,6.12439881742001,14.6770691496026
10.9158894168213,-0.846974669024348,-10.3678559482098,4.36606681108475,11.2815044409712
10.9258784167469,-2.59260542660952,-8.12691698133946,3.13990861237049,9.08996196987133
10.93586841668,-3.20136869609356,-5.97181104719639,2.03868026912212,7.07583959339473
10.9458574168384,-2.98536933392286,-3.72313621401787,1.0452733399719,4.88536279955894
10.9558474167716,-2.74898716270924,-1.52341719388962,0.609088667035103,3.20136211192819
10.9658364166971,-2.30034872442484,1.08353116035461,0.445426270365715,2.58148185966013
10.9758264166303,-2.36545513182879,3.41838985919952,0.501779980659485,4.18718883729453
10.9858154167887,-2.36597962707281,5.18003665208817,0.659490496516228,5.73284981729816
10.9958044167142,-1.81492033615708,6.57377312779427,0.998641283512116,6.89243885540099
11.0057944166474,-0.959211169481278,8.04210604190826,1.9639446669817,8.33382471089481
11.0157834168058,-0.49559103179723,9.71007400810719,2.77576974928379,10.1111841747026
11.025773416739,-0.390659969486296,11.6584592342377,3.33363388359547,12.1319990849817
11.0357624166645,-0.153344144113362,13.5248846232891,3.6933253544569,14.0209368686151
11.0457514168229,0.53897967427969,15.2878224813938,3.6319483011961,15.7225654323478
11.0557414167561,1.50326184153557,16.6442490434647,3.09397814869881,16.9959855015741
11.0657304166816,1.84399093821645,16.9718989419937,1.67076878249645,17.153341499604
11.0757204166148,1.60705415859818,16.3651731348038,0.138178440146148,16.4444704409139
11.0857094167732,1.72466856256127,15.1350873613358,-1.20540759980679,15.2806530805337
11.0956984166987,1.55407736152411,13.7771299982071,-2.13632643163204,14.0281273894839
11.1056884166319,0.976159470230341,12.2798568749428,-2.81888945639133,12.6370055767873
11.1156774167903,0.12981644667685,10.9901388573647,-3.4465213984251,11.5186159829984
11.1256674167234,-0.733652048259974,10.1870167708397,-3.59347186803818,10.8271231674747
11.135656416649,-0.991352363750339,9.59014644563198,-3.13324278652668,10.1375982716373
11.145646416815,-0.874536762535572,9.25532844543457,-2.34474400162697,9.58768708370596
11.1556354167406,-0.866971634924412,9.09689229011536,-1.16940870501101,9.21263295008974
11.1656244166661,-0.93543843716383,9.11269965291023,0.175549201369286,9.16226814473224
11.1756144168321,-0.916357729956508,9.29498835504055,1.40038183629513,9.44444753794608
11.1856034167577,-0.737559742480517,9.61685945034027,2.13126508176327,9.87776649400411
11.1955934166908,-0.639773758426309,9.93867031931877,2.56623594582081,10.2845537145615
11.2055824166164,-0.689319920986891,10.0341869258881,2.88462034642696,10.4633218320069
11.2155714167748,-0.697944564074278,9.59069316029549,3.10087786316872,10.1036609915292
11.2255614167079,-0.205975626558065,7.80727192103863,2.91346232235432,8.33571733635159
11.2355504166335,0.916464660912752,4.16653466999531,2.94505775213242,5.18394481012
11.2455404167995,2.82570672512054,-2.59324598908424,3.36993749141693,5.10548939401018
11.255529416725,4.60708523958922,-14.5238229453564,4.13363940417767,15.7877687491511
11.2655184166506,3.37450124323368,-35.2026706695557,4.50703616380692,35.6500863377867
11.2755084168166,2.71986101210117,-52.6943590164185,4.79441424161196,52.9818792040875
11.2854974167421,2.12526408433914,-29.1733493328095,-3.74195460051298,29.4890366569445
11.2954874166753,-0.161475245654583,-9.62199447512627,-7.90656758308411,12.454824883562
11.3054764168337,-1.63729288816452,-8.85122444808483,-4.48900568962097,10.0586318310921
11.3154664167669,-1.88817103788257,-15.4760502004623,2.40855218097568,15.7757549196231
11.3254554166924,-0.392306947410107,-22.3528389072418,8.14362130701542,23.793315866986
11.335444416618,2.58335016131401,-22.3605572319031,9.14186965763569,24.2948965549223
11.345434416784,3.83498935639858,-18.239303984642,5.79637995958328,19.5186417007877
11.3554234167095,3.90127456247807,-14.1408969783783,3.42886806964874,15.0645958061942
11.3654134166427,3.98499353438616,-11.3851019024849,2.10317271888256,12.2443478505193
11.3754024168011,3.30073627889156,-9.77864839911461,0.711251218914986,10.345177755491
11.3853914167266,1.31959363505244,-8.61476772487164,-0.472463795542717,8.72804516219179
11.3953814166598,-0.969495764002204,-7.15401104807854,-0.991348051428795,7.28715081986915
11.4053704168182,-2.51372093260288,-4.77095082700253,-1.23528745651245,5.53233222257115
11.4153604167514,-2.55080514371395,-2.04892283678055,-1.58894752442837,3.63723052715462
11.4253494166769,-1.95132199019194,0.633515410423279,-1.84322656095028,2.75798539511053
11.4353394168429,-1.38302320718765,2.93707864165306,-1.57642805099487,3.60892082745489
11.4453284167685,-0.918866258561611,4.88131000578404,-0.14351172208786,4.9691144269444
11.455317416694,-0.117004100829363,6.70240076243877,1.79977648615837,6.94082569584335
11.4653074166272,0.927040885314345,8.51950547218323,3.05389665484428,9.09767349777258
11.4752964167856,1.31286158949137,10.4475312781334,3.78134583055973,11.1880781035453
11.4852864167187,1.74458988010883,12.3971017348766,4.39222316086292,13.2673791522471
11.4952754166443,2.22804541781545,14.1792009186745,3.65267141819,14.8106695853108
11.5052644168027,2.53670049011707,15.3502321529388,1.989143242836,15.6850619178312
11.5152544167358,3.11594935387373,16.2715896177292,0.9311755245924,16.5933979920117
11.5252434166614,3.21052309691906,16.8363207221031,0.237013962864876,17.1413339513575
11.5352334168274,2.52969289451838,16.8867494487762,-0.738543682694435,17.0911409758848
11.545222416753,1.79457889616489,16.1484110033512,-2.21508901119232,16.3981191200461
11.5552114166785,1.10192240774632,14.3775513374805,-3.36981294572353,14.8082360443014
11.5652014168445,0.253205524273217,12.6849788725376,-3.34167380511761,13.1201976301448
11.5751904167701,-0.613407201245427,11.6689222419262,-2.7519926315546,12.0047273241332
11.5851804167032,-1.4566547088325,10.9103968691826,-1.76974050879478,11.1485687086864
11.5951694166288,-2.29319407135248,10.230931699276,-0.7245173817873,10.5097872443094
11.6051594167948,-3.14499159693718,9.78451140224934,0.0265708442777395,10.2775649613767
11.6151484167203,-3.86925608664751,9.4387374740839,1.01358318530023,10.2512564421274
11.6251374166459,-4.22536438375712,9.11082269668579,1.90142448306084,10.2213604500943
11.6351274168119,-4.19708490997553,8.82458219468594,2.37868182599545,10.0571815078397
11.6451164167374,-3.82889538824558,8.67088754653931,2.65061068296433,9.84227960035191
11.6551064166706,-3.14767634600401,8.71985622346401,2.52505868375301,9.608313082611
11.665095416829,-2.38335842907429,8.9644832611084,2.20279991805553,9.53387041128196
11.6750844167545,-1.38035556122661,8.9821073538065,1.588617156744,9.22536386607137
11.6850744166877,-0.186348862498999,8.54214179813862,1.27663487255573,8.63902245603558
11.6950634166133,1.30002548933029,6.91541599810124,1.54588395059109,7.20435992218588
11.7050534167793,3.1113297611475,2.71339223742485,2.00324848115444,4.588668084964
11.7150424167048,6.07774329900742,-5.44240121841431,3.15494472742081,8.74713500889905
11.725032416638,5.53064564287663,-20.8981662583351,5.05496237039566,22.2007666253714
11.7350214167964,0.71006920427084,-47.8513067579269,5.92154545783997,48.2215352029085
11.7450104167219,-0.141766912937164,-54.9744830989838,5.87254403650761,55.2874367584425
11.7550004166551,4.01278271913528,-22.9178179335594,-3.34394427895546,23.5055475862088
11.7649894168135,3.65414550125599,-8.22078876614571,-9.85015049099922,13.3401503731131
11.7749794167466,2.90500432491303,-9.69317789375782,-7.72334274172783,12.7297592637881
11.7849684166722,4.25544216871262,-17.7363498830795,-1.94858549326658,18.3434969580732
11.7949574168306,4.6121901512146,-21.0967540740967,2.42577413141727,21.7308469828152
11.8049474167638,3.96111262857914,-20.5433969736099,5.59596898198128,21.6572491632458
11.8149364166893,2.77389893263578,-18.046797273159,5.37295091450215,19.0328665375615
11.8249264166225,1.89131800934672,-14.4966649675369,4.1270770740509,15.1908901703833
11.8349154167809,1.49933192789555,-11.4836380112171,2.93146472990513,11.9463560831475
11.844905416714,1.16113292142749,-9.03271968305111,2.40472006201744,9.41917900405714
11.8548944166396,0.70760284870863,-6.9417846018076,1.95767469763756,7.24717637919513
11.864883416798,-0.0944450312107801,-4.65914621651173,1.09861522257328,4.78785116080541
11.8748734584078,-0.65087023884058,-1.88287536084652,0.119537553191185,1.99578077927267
11.8848624583334,-0.939765596017242,0.7485500228405,-1.17782518722117,1.68248586436996
11.8948524584994,-1.10100439488888,3.11337102413178,-1.92247445940971,3.82115137864893
11.9048414584249,-0.813862617686391,4.99463664650917,-1.51646310031414,5.28284278828493
11.9148304583505,-0.335770073086023,6.54352548122406,0.054621216841042,6.55236222615462
11.9248204582836,-0.0765321226045489,7.97563255548477,1.93205921530724,8.2066695216362
11.934809458442,-0.0818094905465841,9.51880515217781,3.50747569799423,10.1447883215911
11.9447994583752,0.133217406570911,11.473044025898,4.83187939882278,12.4497206644316
11.9547884583008,0.533883131481707,13.5415316462517,4.89044686496258,14.407448804821
11.9647774584591,0.60320808570832,15.1266159152985,3.39283694207668,15.5141777596863
11.9747674583923,1.1953174982965,16.4742435872555,1.95940254986286,16.6333623794581
11.9847564583179,1.54934944912791,17.4056851601601,1.29021912395954,17.5220725086378
11.9947464584839,0.923653447106481,17.1511231184006,0.564923404678702,17.1852639888376
12.0047354584094,0.286780821271241,15.8033866882324,-0.628531828522682,15.8184805312241
12.014724458335,-0.103109289184213,13.6961109781265,-2.20542531788349,13.8729228457249
12.024714458501,-0.514779729768634,12.0488509261608,-3.50767391860485,12.5596012329328
12.0347034584265,-1.022494122684,11.1804937934876,-3.84842274963856,11.8684157896946
12.0446934583597,-1.57780740916729,10.6358993303776,-3.27382037580013,11.2396499340217
12.0546824582852,-1.9820599257946,10.1476977539063,-1.99401046514511,10.5299766851206
12.0646724584512,-2.15425545662642,9.88358487010002,-0.584652568101883,10.1325162265976
12.0746614583768,-2.15230424076319,9.75242831468582,0.484704356789589,9.99886042963816
12.0846504583023,-2.22752413854003,9.58311926186085,1.02889411948621,9.89225260918565
12.0946404584683,-2.30264361038804,9.34704903960228,1.36411272704601,9.72266922595229
12.1046294583939,-2.3110213547945,9.36528708994389,1.74920333325863,9.80352662466262
12.1146194583271,-2.03104058951139,9.62601385116577,2.32753213763237,10.1095338364729
12.1246084584855,-1.51730129867792,9.89928932189942,2.79703314900398,10.398150159825
12.134597458411,-0.743438533097506,9.80836044073105,2.6172675204277,10.1787388541645
12.1445874583442,0.0381971555203199,9.00735329210758,2.24677273392677,9.2834185551147
12.1545764585026,1.08745296098292,7.62957035958767,2.14260561034083,7.99897847326227
12.1645664584357,2.48715703189373,4.35161600232124,1.85959818005562,5.3460842982713
12.1745554583613,4.50687244176865,-2.01195323109627,1.01904104948044,5.039672575775
12.1845444582868,7.11384886264801,-12.6868277621269,1.20277167499065,14.5948314141902
12.1945344584528,5.01597722947598,-32.03656945467,3.42838742852211,32.6076011130927
12.2045234583784,2.15818054631352,-52.0015715503693,8.21941350102425,52.6913649973075
12.2145134583116,1.82801122874022,-30.9643304371834,3.01190370619297,31.1641291938482
12.2245024584699,0.148333336114883,-8.81206564486027,-4.33822821736336,9.82317299928375
12.2344924584031,-1.21486941799521,-7.77626179754734,-3.66141242086887,8.68055851673538
12.2444814583287,1.12710899680853,-16.2726982498169,1.88529961645603,16.4202752006198
12.254470458487,5.25000794291496,-23.340368142128,5.41417846262455,24.5285282240065
12.2644604584202,7.91172424256802,-23.4196025919914,6.18415092945099,25.4816971329517
12.2744494583458,6.84500265777111,-17.5535928189755,4.24141528308392,19.3124904101687
12.2844394582789,4.55248627871275,-12.9019491648674,2.78175846755505,13.9615043509826
12.2944284584373,3.29796499103308,-10.7261791706085,1.8983393459022,11.3811767824894
12.3044174583629,2.35213663637638,-9.92108540296555,1.05286412224174,10.250317321382
12.314407458296,0.768114514052868,-9.71579141557217,0.315406267493963,9.75120935326378
12.3243964584544,-0.971004418730736,-8.62682936131954,0.0185070222616196,8.68132345442747
12.3343864583876,-2.2617986163497,-6.33127506136894,-0.572136018276215,6.74745259390851
12.3443754583132,-3.05304997801781,-3.45205403387547,-1.6726556789875,4.90260831002432
12.3543654584792,-3.4166438806057,-0.529596939682961,-2.14032417297363,4.06631478009477
12.3643544584047,-3.12317885130644,2.01255900263786,-1.73644003093243,4.10120273302493
12.3743434583303,-2.39278063237667,4.03359120547771,-0.0687334352731705,4.6904137826751
12.3843334584963,-1.6561943051219,5.8760184520483,2.54758157372475,6.61519042053305
12.3943224584218,-1.32247835889459,7.81632341086865,4.47399296343327,9.10277285830467
12.404312458355,-1.36585812091827,9.88556356787682,5.22731840729714,11.2656465945049
12.4143014582805,-1.19115428075194,12.1080726957321,4.76627890169621,13.0668162723152
12.4242904584389,-0.565915896445513,14.3731764507294,4.28045129477978,15.0076888751277
12.4342804583721,0.779369380921125,16.1803683757782,3.36576316416264,16.5450929004655
12.4442694582976,1.85220846891403,17.1824922609329,1.90168936192989,17.3863492124889
12.4542594584636,2.3350002014637,17.1351438474655,0.703855660557747,17.3078246294868
12.4642484583892,2.05859281584621,16.4229635059834,-0.407839819975197,16.5565053081582
12.4742374583147,1.80179786860943,15.5714861154556,-1.85376441299915,15.7846158617198
12.4842274584807,1.25769252508879,14.477783138752,-3.14571899056435,14.8688783392693
12.4942164584063,0.761403664648533,13.2776316010952,-4.05283380746841,13.9032621476365
12.5042064583395,0.19458309430629,12.2636039543152,-4.32484978795052,13.0053131533701
12.5141954584979,-0.392396117448807,11.3191125655174,-3.82137119114399,11.9532071748275
12.5241844584234,-0.711922552362085,10.5507977843285,-2.60532399773598,10.890999988042
12.5341744583566,-1.02631725154817,9.9094400882721,-1.06572755813599,10.0192866608382
12.5441634582821,-1.41181460469961,9.30768149077892,0.597240965589881,9.43307224518133
12.5541534584481,-1.63679441303015,8.81687614917755,1.59455383479595,9.10818329374882
12.5641424583737,-1.77609570130706,8.27545263111592,1.57687068521976,8.60953850958053
12.5741314582992,-2.10698013335466,7.77305576920509,1.46438019633293,8.18560752986215
12.5841214584652,-2.31484411820769,7.71947948634625,1.50384773254395,8.19819643790016
12.5941104583908,-2.07912487506867,8.07867277443409,1.25492927715182,8.4357905102702
12.604100458324,-1.67526850730181,8.36330412268639,0.819165019020438,8.56868786620724
12.6140894584823,-0.817155842632055,8.3181981164217,0.871064832061529,8.40350626327152
12.6240794584155,0.168012140393257,7.41151891708374,1.24927326545119,7.51794682272898
12.6340684583411,0.9003523658216,4.39988301336765,1.4461846844852,4.71816225405627
12.6440574584994,2.63357540488243,-1.69773263275623,2.16400247275829,3.80800764280103
12.6540474584326,3.62757750749588,-14.0492032814026,4.01384983599186,15.0549135474421
12.6640364583582,-2.01829804480076,-38.5325664281845,5.6293407958746,38.9938672144248
12.6740264582913,-3.57687103807926,-58.3502350616455,8.81194694638252,59.120168700353
12.6840154584497,1.6133463473618,-31.6452761220932,2.2488400170207,31.7660773263276
12.6940044583753,2.75181399911642,-7.7801624751091,-5.95705793738365,10.177914702638
12.7039944583084,2.77209360480309,-5.14813892126083,-7.27269139945507,9.33165995405419
12.7139834584668,3.98796128869057,-12.6574092507362,-2.23888805598021,13.4583232205178
12.7239734584,4.79253933191299,-19.0366770887375,2.03091048896313,19.735453003237
12.7339624583256,4.37907686591148,-20.3515381336212,4.76021826267242,21.3546504656499
12.7439524584915,3.7281949326396,-18.1443709301949,5.97449316501618,19.4630984811536
12.7539414584171,2.25782645657659,-14.761941447258,5.52757059216499,15.9237788307819
12.7639304583427,0.67142181314528,-11.6846266937256,4.70012350380421,12.6123934752253
12.7739204585087,-0.18709014326334,-9.26165688693524,4.02572260737419,10.1004818461569
12.7839094584342,-0.494073862060905,-7.42748181581497,3.0847734618187,8.05775542047379
12.7938994583674,-0.464304225370288,-5.54901291668415,1.95310334444046,5.90099444477698
12.8038884582929,-0.682962170317769,-3.35589715719223,0.68886515378952,3.49328187466192
12.8138774584513,-0.842664101645351,-0.933834253549576,-0.697443603873253,1.43824781657681
12.8238674583845,-0.44679656535387,1.62630187690258,-2.09470887422562,2.68929177171024
12.83385645831,0.0610807456076145,3.76694179952145,-2.65966977417469,4.61166181393696
12.843846458476,0.8655063957721,5.51134807705879,-3.10574099242687,6.38511441241758
12.8538354584016,1.3244987180829,7.12552516758442,-2.03369961082935,7.52750555464224
12.8638244583271,1.56553878128529,8.87058282494545,-0.156539282016456,9.00903190563446
12.8738143334631,1.67113964214921,10.8503436255455,1.6624598890543,11.1034425913179
12.8838033333886,2.13977804303169,13.1519457006454,2.62239143550396,13.5804735788989
12.8937933333218,3.12863868892193,15.7945410203934,2.47380257606506,16.2903531354005
12.9037823334802,3.65286174505949,17.6537638092041,1.58478138327599,18.0972458565513
12.9137713334057,3.04014400362968,18.0462031960487,0.735184457302094,18.3152510641308
12.9237613333389,2.34119474172592,17.5964330291748,0.665706598386169,17.7639751588448
12.9337503334973,1.10317312717438,16.1603989648819,-0.817231344804168,16.2186113068785
12.9437403334305,-0.150094371289015,14.2266662764549,-2.85123800754547,14.5103452694133
12.953729333356,-0.9284801774472,12.5831180369854,-4.14591504871845,13.2810220451519
12.9637193332892,-1.54166752338409,11.5662217462063,-4.38933931410313,12.4667768027427
12.9737083334476,-1.90374962836504,10.8670736789703,-3.44402580678463,11.55763240242
12.9836973333731,-2.20802528232336,10.2767598366737,-1.68934889495373,10.646176218574
12.9936873333063,-2.57795522779226,9.79913528859615,0.422235043644905,10.1413602634358
13.0036763334647,-2.76730912059546,9.8075856846571,1.04433837018907,10.2438947360011
13.0136663333979,-3.42831550776959,9.33393490433693,1.04904837548733,9.99880945479637
13.0236553333234,-4.27957830548287,8.65854699790478,1.39336166918278,9.7584160256075
13.0336443334818,-4.88380033493042,8.42028173089027,1.69439094901085,9.88046612398023
13.043634333415,-5.0044634771347,8.33207706749439,1.65393757224083,9.85919228159746
13.0536233333405,-4.59264232456684,8.42492149651051,1.74804499983788,9.75332389830389
13.0636133335065,-3.85080490529537,8.55166106522083,1.99061425611377,9.58760400254955
13.0736023334321,-2.8721289396286,8.26288345634937,2.51007110059261,9.1008145014111
13.0835913333576,-1.53478578910232,6.47505458593369,2.95576458871365,7.28137649164942
13.0935813332908,-0.00808436036109924,1.89362078905106,3.20270420014858,3.72064231595274
13.1035703334492,1.87208330109715,-7.73514183819294,4.40508235752583,9.09625558786664
13.1135603333823,0.946155214011669,-28.806434211731,8.14385811924934,29.9504304935714
13.1235493333079,1.91846546217799,-59.1803057956696,12.5296429109573,60.5225664960982
13.1335393334739,8.68311641335487,-49.6063181304932,4.50432627171278,50.5615690448152
13.1435283333994,8.41168983221054,-16.0761359095573,-12.1619325685501,21.8428769949802
13.153517333325,4.39176707804203,-7.81726364314556,-19.6604299879074,21.6085570143781
13.163507333491,5.11787431776524,-10.1434643697739,-12.8867814874649,17.1799779993742
13.1734963334166,6.56383520007134,-16.195063598156,-3.83252826333046,17.890005320604
13.1834863333497,8.05604288041592,-19.6721595025063,3.24238925278187,21.5036456083545
13.1934753335081,8.20002354919911,-18.8477020955086,9.57493374466896,22.6749998170509
13.2034643334337,5.32176614284515,-15.65171459198,11.00698117733,19.8607904975112
13.2134543333668,1.51314524397254,-11.997626978159,7.80258362352848,14.3914201119472
13.2234433332924,0.194298005998135,-8.87677385687828,4.67970210313797,10.0366566941092
13.2334333334584,-0.452772273570299,-6.44713062286377,2.76612827539444,7.03007550712782
13.2434223333839,-0.981748969852924,-4.45307805776596,1.92777671456337,4.95076340472625
13.2534113333095,-1.21171557605267,-2.39932249724865,1.68451266288757,3.17215793971245
13.2634013334755,-0.740483350306749,-0.162088326215744,0.981059875488281,1.23978493976577
13.273390333401,-0.990782844945788,1.82708590686321,0.246663111224771,2.09302084254699
13.2833803333342,-1.11293848894537,3.33303980648518,-0.333621075153351,3.52974353934917
13.2933693334926,-1.15137947335839,4.45447788119316,-0.708646795973182,4.65512923205718
13.3033583334181,-1.1138969937712,5.6436150187254,-0.72245331466198,5.79768020713297
13.3133483333513,-0.856164591684938,7.11669294834137,0.15669602394104,7.16972035528205
13.3233373335097,-0.848713119328022,8.77132516980171,1.53134952664375,8.94435523478739
13.3333273334429,-0.506084335371852,10.4586339712143,2.89857706546783,10.8646626686153
13.3433163333684,0.48286555364728,11.9788387048245,3.72706612765789,12.5545512774864
13.353305333294,1.35507380872965,13.3658087825775,3.59612007200718,13.9073055985631
13.36329533346,1.71754066050053,14.6046595323086,2.93617524683476,14.9955710479878
13.3732843333855,1.64516791820526,15.6760238063335,2.31016298353672,15.9305101257408
13.3832743333187,1.20651126176119,16.085560451746,1.00035035155714,16.1617333630212
13.3932633334771,0.782350730001927,15.6451937770844,-1.0650240650028,15.700905618667
13.4032533334102,0.475266292914748,14.5272119915485,-2.9682443010807,14.8349668192238
13.4132423333358,0.4034114677459,13.2682491588593,-4.4035030245781,13.9857075416779
13.4232313334942,0.236766552552581,12.6510767161846,-4.90837267398834,13.5719535360961
13.4332213334274,0.0722998713701964,12.3345189857483,-4.40509872972965,13.0977280739772
13.4432103333529,-0.1667865639925,11.8657009291649,-3.13662364661694,12.2744076923829
13.4532003332861,-0.510240828618407,11.3879038882256,-1.77726879894733,11.5370440345161
13.4631893334445,-1.0726910803467,10.8784628856182,-0.732355062738061,10.9557274904749
13.47317833337,-1.79139245599508,10.2685409903526,0.176429792046547,10.4251210292001
13.4831683333032,-2.40811583250761,9.71664277017117,0.997756015062332,10.0602030621398
13.4931573334616,-2.91831083357334,9.16706764876843,1.61384847700596,9.75480262768974
13.5031473333947,-3.38047622054815,8.59721087515354,1.56241987645626,9.36914137901096
13.5131363333203,-3.43289855539799,8.07328398048878,1.58259934857488,8.91444487443722
13.5231253334787,-2.66138768613338,7.31908437788487,2.10712485194206,8.06795858245272
13.5331153334118,-1.72035667955875,6.32239664912224,2.86382823228836,7.15079286777252
13.5431043333374,-0.220004997253418,3.90303457438946,3.31793820261955,5.12745502214288
13.5530943335034,2.41209237769246,-2.65151817083359,3.55094565331936,5.04558750608989
13.563083333429,4.74561162561178,-16.5827187931538,3.86760161697865,17.6767003295754
13.5730723333545,3.58123423039913,-42.0686396884918,4.32667675048113,42.441911073328
13.5830623332877,1.91542651802301,-55.5014856290817,3.79067330896854,55.6637491543324
13.5930513334461,1.08934855520725,-25.1997359418869,-6.84729067325592,26.1361581220274
13.6030413333792,2.14629681140184,-7.17239995658398,-11.719688937664,13.9068695232049
13.6130303333048,1.15422794446349,-5.70909857153893,-8.3550782597065,10.1849585847537
13.6230203334708,0.688090251535177,-10.936747931242,-1.34851484075189,11.041033275084
13.6330093333963,1.64819589883089,-18.556897841692,6.16846752762795,19.6246018779316
13.6429983333219,2.13194131225348,-22.6919353151321,11.3617107009888,25.4667935193655
13.6529883334879,2.26466170549393,-21.0022350025177,9.40327294170857,23.122372494136
13.6629773334134,0.881112687438727,-16.3547721076012,3.77317200779915,16.8074911054557
13.6729673333466,0.220728590190411,-12.9597219944,0.7283467233181,12.9820493078724
13.682956333505,0.858187362849712,-10.655089892149,-0.382174599766731,10.6964238689497
13.6929453334305,1.30226716563106,-8.54649914324284,-0.565781118124723,8.66363986149919
13.7029353333637,1.19495694436133,-6.28792848229408,-0.308442233651876,6.40789382783631
13.7129243332893,0.487084027379751,-3.7164107465744,-0.232027457356453,3.75536901355239
13.7229143334553,-0.206414167732,-1.13408326327801,-0.152988231405616,1.16282288231545
13.7329033333808,-0.405893464609981,1.42821809113026,-0.370982955917716,1.53041980319986
13.7428923333064,-0.182005989253521,3.79140479564667,-0.0100303137302399,3.79578412344146
13.7528823334724,0.410530452802777,5.59865109980106,0.759447551742196,5.66482038319216
13.7628713333979,1.42772955626249,7.08407834887505,1.83666364610195,7.45626656495985
13.7728613333311,2.42616121709347,8.74658209204674,2.99095371723175,9.55692213439367
13.7828503334895,2.58520665228367,10.3706099867821,3.74443352758884,11.3249118043139
13.792839333415,2.37937442868948,12.1732621335983,3.93832836806774,13.01384508821
13.8028293333482,2.11654924795032,14.1899457621574,3.81538890480995,14.8455897136798
13.8128183335066,2.48380248427391,15.6513450479507,2.92948252379894,16.1156986956241
13.8228083334398,2.32431441485882,16.2071860456467,1.39764709353447,16.4325510623089
13.8327973333653,1.96275300443172,15.8682393264771,-0.217658473066986,15.9906470753893
13.8427863332909,1.71401610508561,14.9866312336922,-1.74928168594837,15.1854191038629
13.8527763334569,1.30153655603528,14.1238862586021,-2.47227996110916,14.3975806529684
13.8627653333824,0.584474410749972,13.1827500021458,-2.72156079769135,13.4734331605358
