"Time (s)","Linear Acceleration x (m/s^2)","Linear Acceleration y (m/s^2)","Linear Acceleration z (m/s^2)","Absolute acceleration (m/s^2)"
"0.010297583183274","-0.74460709914565","-5.2407939004898","-1.2962388324738","5.4498252770453"
"0.020286583341658","-0.99185624755919","-4.5777173066139","-2.1702274185419","5.1622825962248"
"0.030274583259597","-1.1984380111098","-3.6716602510214","-2.780342271924","4.7589542774071"
"0.040263583185151","-1.3215134221315","-2.6604287427664","-2.8884210366011","4.1433386181787"
"0.050251583335921","-1.1819546370953","-1.6886255943775","-2.8936057627201","3.5526648409588"
"0.060240583261475","-0.94074646644294","-0.76427377045155","-2.5088630658388","2.7863079861091"
"0.070229583187029","-0.55690204806626","-0.11426804244518","-1.9373515301943","2.0190413636701"
"0.080217583337799","-0.040999214351177","0.11895575523376","-1.6887910705805","1.693471785225"
"0.090206583263353","0.28332244902849","0.24659053266048","-1.4861236524582","1.5328542041946"
"0.10019558318891","0.58025056488812","0.2376764523983","-1.3787290120125","1.5146202503078"
"0.11018358333968","0.79158260643482","0.13264233291149","-1.3050733906031","1.5321271377241"
"0.12017258326523","0.88913630984724","-0.029727829098701","-1.2279170411825","1.5163203425853"
"0.13016158319078","0.80704812638462","-0.20322231888771","-1.1375004491955","1.4094443093344"
"0.14014958334155","0.55613511264324","-0.14799887537956","-1.029833913222","1.1797236199426"
"0.15013858326711","0.23951130867004","0.21703168809414","-1.0122612029314","1.0626105418158"
"0.16012658318505","-0.03847628697753","0.76457431733608","-0.98450330078602","1.2471170998138"
"0.17011558334343","-0.16411614060402","1.4763558787107","-0.95606010496616","1.7665253217881"
"0.18010458326899","-0.18903280757368","2.1817353236675","-0.86625454701483","2.355015788716"
"0.19009258318692","-0.1169933931157","2.7995983225107","-0.70800075173378","2.8901043728373"
"0.20008158334531","-0.030650994814932","3.3312774556875","-0.52886958260089","3.3731368198838"
"0.21007058327086","0.056913033016026","3.7824649876356","-0.42756247837096","3.8069791369178"
"0.2200585831888","0.11699083495885","4.1658622401953","-0.34738830786198","4.1819581174599"
"0.23004758334719","0.12938605505973","4.4064488518238","-0.27203352212906","4.4167334617503"
"0.24003558326513","0.10311140879989","4.5251321268082","-0.20913791041821","4.5311357729901"
"0.25002458319068","0.063164547085762","4.4905715739727","-0.13097353756428","4.4929252039759"
"0.26001358334906","-0.0079738845303655","4.3483690434694","-0.0012711846828461","4.3483765403824"
"0.270001583267","-0.13212616994977","4.126625084281","0.10897982060909","4.1301777821666"
"0.27999058319256","-0.29737550094724","3.8067753714323","0.23913239082322","3.8258535279658"
"0.28997958335094","-0.46299218326807","3.4060446327925","0.33721945166588","3.4538701134993"
"0.29996758326888","-0.65288182720542","2.9705597984791","0.42161056101322","3.0705432193332"
"0.30995658319443","-0.81240790352225","2.5018440681696","0.51848664522171","2.6810555280363"
"0.3199445833452","-0.94701636269689","2.0105463910103","0.661917091012","2.3188943522709"
"0.32993358327076","-1.0523260322213","1.4698935359716","0.87394648611546","2.007924188254"
"0.33992258319631","-1.0986918210983","0.92136038839817","1.1456151419878","1.8353372269448"
"0.34991058334708","-1.0766627284884","0.53379173219204","1.4059285050631","1.8495326992572"
"0.35989958327264","-1.0488799756765","0.28007753670216","1.5533631241322","1.8951331418541"
"0.36988858319819","-1.0329989379644","0.24582454741001","1.5916699880362","1.9133556555852"
"0.37987658334896","-0.96857826277614","0.25515202581882","1.5420049077272","1.8387565208197"
"0.38986558327451","-0.82711613595486","0.22845013082027","1.6213159561157","1.8343870895163"
"0.39985458320007","-0.67386507220566","0.1598950356245","1.7328287905455","1.8661072250274"
"0.40984258335084","-0.61660394713283","-0.0021354031562805","1.7491624027491","1.8546627992056"
"0.41983158327639","-0.63735973544419","-0.23456924200058","1.7281796693802","1.8568400930929"
"0.42981958319433","-0.6943890184164","-0.50954742193222","1.747786552906","1.9484795402093"
"0.43980858335271","-0.61262374743819","-0.89411996483803","1.9616566514969","2.2411727255634"
"0.44979758327827","-0.36509678319097","-1.3263280194998","2.3673084068298","2.737990279284"
"0.45978558319621","-0.059586859666742","-1.5357133036852","2.7720713853836","3.1695970896351"
"0.46977458335459","0.16513984188437","-1.7995449364185","2.6154776877165","3.1790496505261"
"0.47976358328015","0.16572470963001","-2.5684268975258","1.9558375024796","3.2325812817965"
"0.48975158319809","0.093611108623445","-3.6283698052168","1.3972290176153","3.88922606835"
"0.49974058312364","0.28761092489585","-4.6252668642998","0.92827647507191","4.7262575918247"
"0.50972958328202","0.7404875895381","-5.8422817718983","0.22525172213092","5.893328135344"
"0.51971758319996","1.0817232012749","-7.2262358558178","-0.86629189610481","7.3579257523666"
"0.52970658312552","1.4616995403171","-7.9201956886053","-1.776378852725","8.247520058804"
"0.53969458327629","1.6628934600949","-7.3372949463129","-2.0459787636995","7.796610859234"
"0.54968358320184","1.3962231503427","-6.405007866025","-2.6110782426596","7.0562946677902"
"0.55967258312739","0.8774284299463","-5.2732132029533","-3.2088209724426","6.2348368195701"
"0.56966058327816","0.25339157536626","-3.3071495050192","-3.3844988125563","4.7388054772495"
"0.57964958320372","-0.34952038541436","-1.7555265122652","-3.1964055794477","3.6634746434786"
"0.58963858312927","-0.74394570596516","-0.74731918394566","-3.0768113082647","3.2524927367764"
"0.59962658328004","-1.1431538296491","-0.58692245721817","-2.8238829785585","3.1025140975701"
"0.6096155832056","-1.4057811552286","-0.4696004140377","-2.416760648489","2.8350444859552"
"0.61960458313115","-1.5496245606244","-0.51427606523037","-1.8387037396431","2.4589932070538"
"0.62959258328192","-1.4530029764771","-0.61264494359493","-1.3205077010393","2.0567673823425"
"0.63958158320747","-1.1894819770753","-0.59457587778568","-0.7870486754179","1.5452616172379"
"0.64956958312541","-0.92448214374483","-0.5240625500679","-0.43035273313522","1.1465218120052"
"0.6595585832838","-0.5621355618909","-0.15458167076111","-0.13957539478317","0.59947741717814"
"0.66954712499864","-0.34487521111965","0.20644238054752","-0.038389309644699","0.40377110697269"
"0.67953512491658","-0.20498931091279","0.81229285955429","-0.054641645550728","0.83953916924696"
"0.68952412484214","-0.073001920972019","1.5890352326632","-0.15738190233707","1.5984778116363"
"0.69951312500052","0.033127089645714","2.2976066726446","-0.33547464251518","2.3222052153115"
"0.70950112491846","0.11802248479798","2.9818519413471","-0.49088720262051","3.024291743984"
"0.71949012484401","0.25462767675519","3.6203398239613","-0.64409302353859","3.6859939660424"
"0.72947812499478","0.32241240128875","4.0533249735832","-0.6892458075285","4.1241305606362"
"0.73946712492034","0.44799966651946","4.3653440952301","-0.75521467924118","4.4527836218149"
"0.74945612484589","0.60660791270435","4.6440832042694","-0.75333596885204","4.7437323965311"
"0.75944412499666","0.76866773374379","4.7794953632355","-0.74730047285557","4.8982531589148"
"0.76943312492222","0.93868978142738","4.7567543721199","-0.72221299409866","4.9019835037751"
"0.77942212484777","1.1663227638602","4.5903893923759","-0.57969295978546","4.7715854273775"
"0.78941012499854","1.4173272134364","4.2383712226152","-0.37169112682343","4.4845023519226"
"0.79939912492409","1.6696481636167","3.7170668041706","-0.1525035794545","4.0776914987137"
"0.80938712484203","1.8760361650586","3.1733757358789","0.053440024461597","3.6868253403013"
"0.81937612500042","2.0448686698079","2.5899890899658","0.22125045418739","3.3073377702288"
"0.82936512492597","2.1248853309453","2.0561745536327","0.42969667553902","2.9879141047966"
"0.83935312484391","2.1070520541072","1.5614843219519","0.68331146836281","2.7101321387001"
"0.84934212500229","1.9602259840071","1.1747705286741","0.955453748703","2.4769867923202"
"0.85933112492785","1.6719151291251","0.91516058564186","1.1529212379456","2.2275651454931"
"0.86931912484579","1.2748821696639","0.78050622582436","1.2250735402107","1.9326975174615"
"0.87930812500417","0.85637370273471","0.72843267738819","1.2334362280369","1.6689382891097"
"0.88929712492973","0.56641762409359","0.66163467049599","1.2266815245152","1.504439073101"
"0.89928512484767","0.37274764560163","0.58954844176769","1.2179832065105","1.4035637726281"
"0.90927412500605","0.35246994026005","0.51099343836308","1.2032833063602","1.3539719599025"
"0.91926212492399","0.38006225656718","0.40805729985237","1.2756963944435","1.3922497511675"
"0.92925112484954","0.45651284705848","0.23645847737789","1.3803861129284","1.4730181301732"
"0.93924012500793","0.61614099383354","0.018070819973946","1.6396586716175","1.7516954182241"
"0.94922812492587","0.78043956756592","-0.22237487375736","1.9087381803989","2.0740824343342"
"0.95921712485142","0.98426393039525","-0.48529258668423","2.1733200109005","2.4346671742044"
"0.9692061250098","1.1116225730628","-0.85327190101147","2.4516544926167","2.8238957900684"
"0.97919412492774","1.1479182871431","-1.3113269877434","2.7777349984646","3.2791929776146"
"0.9891831248533","1.0474265040457","-1.6378337556124","3.1016134428978","3.6605474510741"
"0.99917112500407","0.90295832365751","-1.6895406836271","3.3501750719547","3.8592168206309"
"1.0091601249296","0.79980320692062","-1.396195229888","3.3753882658482","3.7392903384182"
"1.0191491248552","0.87535025641322","-1.160901517868","2.5852224397659","2.9660251969025"
"1.0291371250059","1.0057026734948","-1.8232249903679","1.4759325402975","2.5522468721669"
"1.0391261249315","0.7906743876636","-3.3564251607656","1.0120074337721","3.5937327242211"
"1.0491151248571","0.54934225603938","-4.2484354501963","1.007337847352","4.400648841644"
"1.0591031250078","0.23024383731186","-4.17871091187","0.40866778571159","4.2049549900897"
"1.0690921249334","-0.3229482255131","-4.139489543438","-0.87535624980927","4.2433380493044"
"1.0790801248513","-0.7631860421598","-4.154926777482","-2.0325190579891","4.6879636498456"
"1.0890691250097","-1.1070849875361","-4.1702195852995","-2.6534652936459","5.0652982758991"
"1.0990581249353","-1.4410705634952","-4.0859606230259","-3.2890336614847","5.43962324139"
"1.1090461248532","-1.6352484092116","-3.7323935258389","-3.8639763432741","5.6156132321355"
"1.1190351250116","-1.6743145340681","-3.2070323091745","-4.0445190668106","5.426464767496"
"1.1290241249371","-1.4104562965035","-2.7491350972652","-3.721734636426","4.8371933444235"
"1.1390121248551","-0.89132389940321","-2.2313980650902","-3.1105631911755","3.9305469065807"
"1.1490011250135","-0.27632340498269","-1.6054261475801","-2.3680632823706","2.8742775524968"
"1.1589891249314","0.37744142487645","-0.86070195794106","-1.795646597743","2.0267255841881"
"1.1689781248569","0.90131912983954","-0.21611835300922","-1.475116853714","1.7421403641593"
"1.1789671250153","1.0588273320347","-0.030196191072464","-1.2618566197157","1.6475160872475"
"1.1889551249333","0.77329470857978","-0.20347550332546","-1.1162130758911","1.3730690505438"
"1.1989441248588","0.26438777603209","-0.40691241502762","-0.92493829965591","1.0445044125274"
"1.2089331250172","-0.15792423158884","-0.51509701430798","-0.76056195795536","0.93205122657545"
"1.2189211249352","-0.50774472534657","-0.29100013554096","-0.67502135910094","0.89338660178256"
"1.2289101248607","-0.72090774938464","0.13981862068176","-0.6731343164295","0.9961762081917"
"1.2388991250191","-0.73362317763269","0.76634134590626","-0.64442339122295","1.241274962432"
"1.248887124937","-0.58878377214074","1.5045248401165","-0.58806675732136","1.7193265646556"
"1.2588761248626","-0.38891760885715","2.1803121113777","-0.59090791940689","2.2922019934372"
"1.2688641250134","-0.19711775265634","2.8391132211685","-0.53863373838365","2.8964712315422"
"1.2788531249389","-0.094246956780553","3.383662660718","-0.50751894973218","3.422810391292"
"1.2888421248645","-0.026754154488444","3.8671157133579","-0.49640872836113","3.8989384902657"
"1.2988301250152","-0.033000442609191","4.2325778013468","-0.40879521846771","4.2524013691452"
"1.3088191249408","-0.084959970340133","4.3518726950884","-0.42454820215702","4.3733574432889"
"1.3188071248587","-0.13505555190146","4.4208873814344","-0.33825316630304","4.4358652420852"
"1.3287961250171","-0.25432194046676","4.3939282089472","-0.2117780013755","4.4063743232562"
"1.3387851249427","-0.42371014997363","4.2396429920197","-0.061977598853409","4.2612139366302"
"1.3487731248606","-0.55290299110115","3.9276016509533","0.091445190310478","3.9673818405808"
"1.358762125019","-0.75362547911704","3.5267931443453","0.32812235355377","3.6213099183413"
"1.3687511249445","-0.90850082628429","3.0225169873238","0.49734779119492","3.1950489065782"
"1.3787391248625","-1.0706485748291","2.5015943920612","0.65137339174747","2.7979546402064"
"1.3887281250209","-1.1442569799721","2.0010049045086","0.8092289185524","2.4429891744958"
"1.3987171249464","-1.1898417270184","1.5153848737478","1.0846970951557","2.2110365078797"
"1.4087051248644","-1.1215257829428","1.1217047077417","1.4034329134226","2.1179389688216"
"1.4186941247899","-0.99786703906953","0.85980850338936","1.7266395127773","2.1717028565727"
"1.4286821249407","-0.88490277953446","0.73882317960262","1.9077552634478","2.229000395953"
"1.4386711248662","-0.79649879917502","0.71982265233994","1.920308650732","2.2000318865838"
"1.4486601247918","-0.7482556155324","0.79081954479218","1.8032707822323","2.1064347919301"
"1.4586481249426","-0.70151728592813","0.84181369721889","1.7019011127949","2.0241650626897"
"1.4686371248681","-0.6343041998148","0.83405619621277","1.6449270129204","1.9503272633532"
"1.4786251250189","-0.56874024778605","0.67791273415089","1.6101319867373","1.8372686682383"
"1.4886141249444","-0.52107158962637","0.32356269478798","1.6111014550924","1.7239072821864"
"1.49860312487","-0.50490480579436","-0.20234289765358","1.581223937273","1.6721664543192"
"1.5085911250208","-0.44729960862547","-0.80802790045738","1.7119115459919","1.9451547930935"
"1.5185801249463","-0.15657706964761","-1.4404808717966","2.109436841011","2.5591454251304"
"1.5285691248719","0.32401293039322","-1.834939302206","2.7447900313139","3.3175079408861"
"1.5385571247898","0.71005429387093","-1.940731805563","3.3822546511889","3.9636174849318"
"1.5485461249482","0.84377719223499","-1.5491057664156","3.510390534997","3.9286804825379"
"1.5585351248737","0.5727385738492","-1.1952761292458","2.702496535778","3.0100169476287"
"1.5685231247917","0.14308172333054","-1.7162414091825","1.9407335597277","2.5946875927551"
"1.5785121249501","-0.066827544467524","-3.3302097541094","1.6855096131563","3.7330557969453"
"1.588500124868","-0.056405430743471","-3.8320692569017","1.4280467677116","4.0898965675284"
"1.5984891247936","-0.10429211695679","-4.4139052212238","0.41252928692847","4.4343676618183"
"1.6084781249519","-0.2376798510924","-5.1232023006678","-1.0156590199471","5.2283129946458"
"1.6184661248699","-0.10772358287126","-5.1002508097887","-2.1025014585257","5.5176693518332"
"1.6284551247954","0.19589994208887","-4.5854946881533","-2.9301087605953","5.4452433987205"
"1.6384431249462","0.20549379771575","-4.0180475521088","-3.7240635824203","5.4822972737545"
"1.6484321248718","0.022937037292868","-3.4466845357418","-4.1397398042679","5.3867992392182"
"1.6584211247973","-0.28761540167034","-3.0328981339931","-4.1536310344934","5.1511012881872"
"1.6684088332113","-0.68869850814343","-2.7396380496025","-3.6499132865667","4.6153861460776"
"1.6783978331368","-1.0228135999292","-2.4867711156607","-2.7808544880152","3.8682463630693"
"1.6883868332952","-1.2371841470897","-2.2114058500528","-2.0493397432566","3.2589467364087"
"1.6983748332132","-1.3386980965734","-1.9820651882887","-1.3424043542147","2.7427621943234"
"1.7083638331387","-1.2229726356268","-1.8069153517485","-0.87044224977493","2.349100863324"
"1.7183518332895","-1.0605650514364","-1.6610308295488","-0.52868890363723","2.0404248581776"
"1.728340833215","-0.77201080620289","-1.4918983626366","-0.27477414865047","1.7021346133894"
"1.7383298331406","-0.4481891163066","-1.1770714080334","-0.0091953678801656","1.2595456078983"
"1.7483178332914","-0.19896095948294","-0.64151907920837","0.13595532875508","0.68528537398928"
"1.7583068332169","-0.054636392192915","0.096065075397491","0.13328549008816","0.17314345477386"
"1.7682958331425","0.045175186134875","0.97013844609261","0.055291271209717","0.9727623176816"
"1.7782838332932","0.084506171587855","1.6903435063362","-0.070471775941551","1.6939211119925"
"1.7882728332188","0.12815638560802","2.3743402683735","-0.23750279009342","2.3896282858416"
"1.7982608331367","0.19136063894257","3.1589401298761","-0.39707736175507","3.1895441789536"
"1.8082498332951","0.21773256825283","3.6745546227694","-0.49790799099952","3.7145217073662"
"1.8182388332207","0.29043465496972","4.128633018136","-0.59251239538193","4.181032626748"
"1.8282268331386","0.36839081212878","4.4946739804745","-0.64819718420506","4.5560910406648"
"1.838215833297","0.49710732445121","4.666837643981","-0.6974377566576","4.7447769928325"
"1.8482048332226","0.6441618014127","4.7707046592236","-0.72052782654762","4.8676203344926"
"1.8581928331405","0.80214099682868","4.7225949382782","-0.72320292770863","4.8445180982726"
"1.8681818332989","0.97285593956709","4.5510849934816","-0.67353675104678","4.7023903551338"
"1.8781698332168","1.16293444857","4.246882429719","-0.57611329436302","4.4407582045714"
"1.8881588331424","1.3582146406174","3.7772100949287","-0.42172341227531","4.0360765289672"
"1.8981478333008","1.521596955657","3.293857614398","-0.25406212309375","3.6372108602311"
"1.9081358332187","1.6535072171688","2.8028254008293","-0.095275134835392","3.2556095736561"
"1.9181248331442","1.7330313965678","2.3607057309151","0.054939268827438","2.9290523540429"
"1.9281138333026","1.750547169596","1.9785755699873","0.27985006174073","2.6565941986286"
"1.9381018332206","1.6523640865088","1.6643643271923","0.61208653450012","2.4238534637495"
"1.9480908331461","1.4799900694191","1.3843891167641","0.90301533401012","2.2186348337776"
"1.9580788332969","1.2769779579341","1.1519780820608","1.2021115243435","2.0982846145263"
"1.9680678332224","1.1016373559833","1.0107052588463","1.4040649974346","2.0509823259547"
"1.978056833148","0.93082454547286","0.90668797016144","1.5340018236637","2.0103927488662"
"1.9880448332988","0.82211698584259","0.72706033587456","1.690189139843","2.0152499593986"
"1.9980338332243","0.74219804629683","0.47423901021481","1.7867050355673","1.9920028772213"
"2.0080218331423","0.68002131320536","0.10362318634987","1.8505320721865","1.9742430704839"
"2.0180108333007","0.63691688194871","-0.36472826242447","1.8618516969681","2.0012949711188"
"2.0279998332262","0.55833278864622","-0.94625958681107","1.9738714849949","2.2590509838836"
"2.0379878331441","0.29424256280065","-1.7477795362473","2.2791312253475","2.8871700911866"
"2.0479768333025","-0.19274366989732","-2.485308727026","2.7295995497704","3.6965691246105"
"2.0579658332281","-0.68667792968452","-2.9431439584494","3.1358091294765","4.3551029650034"
"2.067953833146","-0.84565721824765","-2.8552486127615","3.2925870144367","4.4394492923209"
"2.0779428333044","-0.7199073638767","-2.416263050437","2.4468434035778","3.5133511613705"
"2.0879308332223","-0.49206245642155","-2.4897789233923","1.3015837723017","2.8522350647706"
"2.0979198331479","-0.5271516706422","-3.3312172293663","1.2893993443251","3.6107406140893"
"2.1079088333063","-0.35769026130438","-4.5184236162901","1.469753202796","4.7648996606864"
"2.1178968332242","-0.046058663874865","-4.4546497893333","0.98054480887949","4.5615232399217"
"2.1278858331498","-0.14290273457766","-4.4711208111048","-0.21284617803991","4.4784646916717"
"2.1378738333005","-0.51035287588835","-4.277142355442","-1.4879415518045","4.5572334643104"
"2.1478628332261","-1.1321829912812","-3.9335663956404","-2.3664646536112","4.7281008736541"
"2.1578518331517","-1.6500903967023","-3.4776198148727","-3.3833118277788","5.1247865143899"
"2.1678398333024","-1.8576136350632","-2.9653130918741","-4.0480677419901","5.3507628048488"
"2.177828833228","-1.5620506247878","-2.5648484015465","-4.0946647882462","5.0778665998053"
"2.1878178331535","-0.90629671834409","-2.4066297626495","-3.6376405656338","4.4548478583332"
"2.1978058333043","-0.14647355608642","-2.4612667304277","-2.8203062367439","3.7461200848291"
"2.2077948332299","0.47480399742723","-2.2772875982523","-1.9232141321898","3.0183157951714"
"2.2177828331478","0.96255365721881","-1.9185381138325","-1.4481372159719","2.5892855063774"
"2.2277718333062","1.0893913129717","-1.5165888154507","-1.0767665165663","2.155514138002"
"2.2377608332317","0.90383796416223","-1.2659414845705","-0.83555951535702","1.7656983353679"
"2.2477488331497","0.4794446401298","-1.0851900154352","-0.67691761113703","1.3659143402194"
"2.2577378333081","0.095160291865468","-0.72732521474361","-0.52801241733134","0.90380006749604"
"2.267725833226","-0.1805460125953","-0.18924045681953","-0.53816654585302","0.59835778948443"
"2.2777148331515","-0.37363503366709","0.45339894890785","-0.60260059654713","0.84160633565409"
"2.2877038333099","-0.4352844209969","1.1555004447699","-0.62317051649094","1.3831107322444"
"2.2976918332279","-0.41522211246192","1.8768205690384","-0.62982230901718","2.0227557914832"
"2.3076808331534","-0.33425812929869","2.5948060262203","-0.60564882315695","2.6854342866104"
"2.3176698333118","-0.22597434662282","3.2389931899309","-0.55758697628975","3.2943959273103"
"2.3276578332298","-0.16534142464399","3.8048878902197","-0.49689404726028","3.8407568704679"
"2.3376468331553","-0.097672621160746","4.2871200442314","-0.44156074918807","4.3109064139458"
"2.3476348333061","-0.09619163107127","4.6822169905901","-0.38016271904111","4.698609631562"
"2.3576238332316","-0.115923243016","4.872756114006","-0.33443566538393","4.8855949032984"
"2.3676128331572","-0.16823404222727","4.9430975335836","-0.23608608283103","4.9515909118173"
"2.377600833308","-0.25897698193789","4.8545379441977","-0.12790725767612","4.863123275776"
"2.3875898332335","-0.40681023493409","4.6674416613579","0.050832769274712","4.6854124898304"
"2.3975778331514","-0.62839112989604","4.2791958975792","0.21102959431708","4.3302339927154"
"2.4075668333098","-0.83442274354398","3.7589200043678","0.41336423277855","3.872545790965"
"2.4175558332354","-1.0809078070521","3.2268005758524","0.65250833630562","3.4650210349457"
"2.4275438331533","-1.3350090882182","2.628504114747","0.81326810203493","3.0582164986565"
"2.4375328333117","-1.524887330085","2.0804954624176","0.98510614871979","2.7611912036003"
"2.4475218332373","-1.6406085518003","1.5929821032286","1.2149455779791","2.5894557650011"
"2.4575098331552","-1.6193584544957","1.1948662394285","1.4247957158089","2.4657797886389"
"2.4674988333136","-1.4709894503653","0.93168130874634","1.664706389308","2.4089598142676"
"2.4774868332315","-1.2607262067497","0.83727742731571","1.8160668289661","2.3640141255815"
"2.4874758331571","-1.0319660273194","0.84716039121151","1.7975849497318","2.2391842848416"
"2.4974648333155","-0.79851513840258","0.90807960748672","1.7496003592014","2.1268136770082"
"2.5074528332334","-0.58181411035359","0.90885377883911","1.732376216054","2.0409924557102"
"2.517441833159","-0.43797033950686","0.76703131735325","1.7102521061897","1.9248681323184"
"2.5274298333097","-0.40386707548052","0.43981118917465","1.6235893535614","1.7299089241282"
"2.5374188332353","-0.44041016332805","-0.079684685468674","1.5892135727406","1.6510331737563"
"2.5474078331608","-0.46060644619167","-0.69026146888733","1.6078872406483","1.809397847999"
"2.5573958333116","-0.34159156098962","-1.52304004848","1.8428868377209","2.4150709472929"
"2.5673848332372","-0.035274123279378","-2.172813642025","2.3428091579676","3.1954840223978"
"2.5773728331551","0.33641030665487","-2.4680606102943","2.9035471987724","3.8255824923806"
"2.5873618333135","0.50534908454865","-2.377373803854","2.9733705550432","3.8403406565178"
"2.597350833239","0.45212082065642","-2.550581780076","2.2173752725124","3.4097850009167"
"2.607338833157","0.20289266383275","-3.707570925951","1.3630777698755","3.9554049869417"
"2.6173278333154","0.049654806568287","-4.6848839056492","1.031919541955","4.7974431471665"
"2.6273168332409","0.32784329518676","-5.5144278055429","0.70313119053841","5.5687331341924"
"2.6373048331589","0.46932409655303","-6.6434245759249","-0.28973128974438","6.666280778955"
"2.6472938333172","0.54786269120872","-7.2974876868725","-1.5465938025713","7.4796679377246"
"2.6572818332352","0.66789703845978","-6.83644759655","-2.3803149533272","7.2697318706669"
"2.6672707081307","0.76929952539504","-5.5720100158453","-2.970308368206","6.3609629128527"
"2.6772597082891","0.68645719729364","-4.4682819879055","-3.5694327950478","5.7600015525622"
"2.687247708207","0.32432297900319","-3.0452123701572","-3.7617892330885","4.8507279874519"
"2.6972367081326","-0.084384366776794","-1.9786948531866","-3.4020486456156","3.9365326151981"
"2.7072247082833","-0.59023570887744","-1.4108799272776","-2.9553985530138","3.3276629890037"
"2.7172137082089","-1.0841509652138","-1.0511861175299","-2.4830674892664","2.9062002211329"
"2.7272027081344","-1.5020311488211","-0.81564448356628","-1.8915269011259","2.5493621777386"
"2.7371907082852","-1.7062298065424","-0.72627213120461","-1.3718673044443","2.3066666994391"
"2.7471797082108","-1.7175503084064","-0.71798487246037","-0.88085614085197","2.0594632504285"
"2.7571687081363","-1.5310710529983","-0.6912899941206","-0.48529317140579","1.7485908290717"
"2.7671567082871","-1.2949622391164","-0.69398205220699","-0.19550925672054","1.4821478195464"
"2.7771457082126","-1.0059877252579","-0.61802087366581","-0.092881814651191","1.1843091383372"
"2.7871337081306","-0.72120858862996","-0.16959088861942","0.0048964583873749","0.7408959934573"
"2.797122708289","-0.51583073023707","0.47308769345284","-0.079687024354935","0.70444540583637"
"2.8071117082145","-0.28677075309679","1.0271143001318","-0.25533679783344","1.0965391605842"
"2.8170997081324","-0.015271385537926","1.8821427047253","-0.27697438281029","1.9024744899472"
"2.8270887082908","0.19903267923743","2.4214577168226","-0.37754068136215","2.4587819032699"
"2.8370767082088","0.39549587264657","3.0269135087729","-0.37646362423897","3.0757677472864"
"2.8470657081343","0.52747114788741","3.5600445055962","-0.4159492868185","3.622865785933"
"2.8570547082927","0.6537016068399","3.9627580350637","-0.44361129462719","4.040738548331"
"2.8670427082106","0.7441654881835","4.3320453715324","-0.44115546405315","4.4175805050144"
"2.8770317081362","0.84987934648991","4.5656504076719","-0.43021532356739","4.6639622396946"
"2.887019708287","0.94484441444278","4.64994094491","-0.37009308278561","4.7593750270997"
"2.8970087082125","1.001571469456","4.6138004744053","-0.30419437766075","4.7310500362447"
"2.9069977081381","1.071312745437","4.5238305366039","-0.17210811495781","4.6521365979172"
"2.9169857082888","1.1562045957148","4.3931949681044","-0.049032991728745","4.5430579271244"
"2.9269747082144","1.2395705419779","4.134189042449","0.11292435228825","4.3174999799171"
"2.9369627081323","1.3266842611134","3.8204724740982","0.29008621573448","4.0546579469281"
"2.9469517082907","1.4063027268648","3.4543151521683","0.46437183380127","3.7584068074271"
"2.9569407082163","1.4871545165777","3.0602812296152","0.57098528623581","3.450068688825"
"2.9669287081342","1.5008764699101","2.6638370847702","0.65596988797188","3.1271320224853"
"2.9769177082926","1.5062317885458","2.253464872241","0.6534626019001","2.7881627469236"
"2.9869067082182","1.4537432339787","1.79680727005","0.69155253410339","2.4124946970861"
"2.9968947081361","1.3710393387079","1.3664644771814","0.7134550344944","2.0630056039499"
"3.0068837082945","1.2348690882325","1.0297765374184","0.73385129213333","1.7674498864339"
"3.0168717082124","1.1167516044527","0.6469008564949","0.76051810383797","1.4979995495483"
"3.026860708138","1.0235391663015","0.25509589254856","0.86456228971481","1.3638820668024"
"3.0368497082964","0.9375201921165","-0.11823713243008","1.1001571333408","1.450265440584"
"3.0468377082143","0.92105750262737","-0.46887243568897","1.3765865921974","1.7213886632347"
"3.0568267081399","0.93618395715952","-0.85585695505142","1.6856470227242","2.109582284333"
"3.0668147082906","0.94299318596721","-1.3095184439421","2.0662013590336","2.621690820802"
"3.0768037082162","0.86016079813242","-1.8609734451771","2.5912930190563","3.3042243072933"
"3.0867927081417","0.64105692990124","-2.2197129893303","3.0757722580433","3.846875969631"
"3.0967807082925","0.3397427444905","-2.3942237251997","3.4348404157162","4.200697687311"
"3.1067697082181","0.12767811991274","-2.3429910063744","3.291522821188","4.0422804257816"
"3.116757708136","0.023383161574602","-2.7133442902565","2.4681231755018","3.6680261748196"
"3.1267467082944","-0.1253991676122","-4.0478642588854","1.7912962692976","4.4282809682764"
"3.1367357082199","-0.41363963663578","-5.0340059494972","1.5900269204378","5.2953280593639"
"3.1467237081379","-0.95318225160241","-6.1749006342888","0.98031377077103","6.324473838769"
"3.1567127082963","-1.6358959883451","-7.1449408471584","-0.18777803163975","7.3322299461517"
"3.1667007082142","-2.1417734053731","-7.5893836158514","-1.4635212403536","8.0204632914491"
"3.1766897081397","-2.6060218629241","-7.5752093803883","-2.3100945711136","8.337366732623"
"3.1866787082981","-2.6794807255268","-7.0316411036253","-2.8794976007938","8.0569907534786"
"3.1966667082161","-2.2491120587289","-5.9925259780884","-3.0532236403227","7.0916180980513"
"3.2066557081416","-1.9372758087516","-4.6984652334452","-3.3325726139545","6.0773886938674"
"3.2166437082924","-1.5922403839231","-3.1932206010818","-3.1449547594786","4.7563250190179"
"3.2266327082179","-1.2346597579122","-1.6555689454079","-2.7755890703201","3.4596514185807"
"3.2366217081435","-0.64859377160668","-0.61985806882381","-2.4658854460716","2.6240215203387"
"3.2466097082943","-0.098031347841024","0.14816259741783","-2.0838991266489","2.0914583119157"
"3.2565987082198","0.42480898797512","0.58982852339745","-1.5831359767914","1.7420332615334"
"3.2665877081454","0.79502164632082","0.93412602961063","-1.2118676036596","1.7243184004454"
"3.2765757082961","1.0043855881691","1.1567137420177","-1.0527321213484","1.8587689501423"
"3.2865647082217","1.0696798373759","1.272303839922","-0.96033909738064","1.919693516561"
"3.2965527081396","1.0577825076878","1.3679625338316","-0.85181535959244","1.9276448672862"
"3.306541708298","0.88854091711342","1.4241963762045","-0.76858141422272","1.8462279571243"
"3.316529708216","0.62498636931181","1.5893492281437","-0.72214867472649","1.8542215723143"
"3.3265187081415","0.3885483571887","1.9139305078983","-0.73029267668724","2.0850484906978"
"3.3365077082999","0.22774386025965","2.3244126480818","-0.69041992843151","2.4354550092383"
"3.3464957082178","0.14682102687657","2.7692781704664","-0.6534088075161","2.8491053102851"
"3.3564847081434","0.083794108629227","3.1552704173326","-0.64803053855896","3.2222191790815"
"3.3664737083018","0.028255792558193","3.5534874379635","-0.59331693571061","3.602790078228"
"3.3764617082197","-0.024740373417735","3.9145319545269","-0.54077619474381","3.9517858497002"
"3.3864507081453","-0.047470327913761","4.2298787266016","-0.46716852050275","4.2558634729439"
"3.396438708296","-0.054298560172319","4.4552175539732","-0.35191233515739","4.4694243565032"
"3.4064277082216","-0.070985855832696","4.5974241775274","-0.18304768899456","4.6016143380653"
"3.4164167081472","-0.065267571285367","4.6447895479202","-0.055670170783997","4.6455816609167"
"3.4264047082979","-0.096563294716179","4.5959442472458","0.080667054243386","4.5976662740262"
"3.4363937082235","-0.16771641746163","4.426905335784","0.22714971005917","4.4359008825106"
"3.4463817081414","-0.29268186785281","4.2006584358215","0.3762864536047","4.2276217268548"
"3.4563707082998","-0.43274303834885","3.8868073815107","0.54815424799919","3.9490519416444"
"3.4663597082254","-0.61224524985999","3.5125879186392","0.73599605083466","3.6407153581392"
"3.4763477081433","-0.78131277613342","3.1023969697952","0.88289740383625","3.3188589060165"
"3.4863367083017","-0.95050378829241","2.6373626464605","1.0113811969757","2.9802736629544"
"3.4963247082196","-1.1052515930682","2.1410012805462","1.1373150193691","2.6643860494611"
"3.5063137081452","-1.1965707758814","1.6646584421396","1.245347006321","2.3986993385651"
"3.5163027083036","-1.2795647661388","1.1627153241634","1.3535824763775","2.1957637477981"
"3.5262907082215","-1.3082000429928","0.76122912526131","1.4654689478874","2.1067644317424"
"3.536279708147","-1.2919029758871","0.5485343170166","1.4845074820518","2.0429551292964"
"3.5462677082978","-1.3021613310277","0.41148786127567","1.4652385675907","2.0029654145682"
"3.5562567082234","-1.2051066143811","0.29995514631271","1.5695692670345","2.001450155723"
"3.5662457081489","-1.0247379916906","0.19959178268909","1.8051758050919","2.0853259981644"
"3.5762337082997","-0.83760048598051","0.065502848625183","1.9135457611084","2.0898618559964"
"3.5862227082253","-0.78955194152892","-0.16905645310879","1.9640832459927","2.123580784877"
"3.5962107081432","-0.80875427082181","-0.6313110101223","2.0158229184151","2.2618972347305"
"3.6061997083016","-0.79953533135355","-1.0824792462587","2.2391725230217","2.6124531866655"
"3.6161887082271","-0.70090047776699","-1.482748054862","2.5938143384457","3.0688232429153"
"3.6261767081451","-0.60447897803038","-1.7632939535379","2.9018900978565","3.4489950045632"
"3.6361657083035","-0.57952350016683","-1.7589073723555","2.9458354318142","3.479590352772"
"3.6461537082214","-0.70169730708003","-2.1095496922731","2.4411692655087","3.3018004781932"
"3.6561427081469","-0.96828582890332","-3.3869148820639","1.6980594921112","3.9105211805525"
"3.6661322081927","-1.1146724807471","-4.6427705043554","1.2446517723799","4.9342649634911"
"3.6761202083435","-0.79017942085862","-5.6218399876356","0.99029145956039","5.762824441071"
"3.686109208269","-0.24532696763054","-6.5471834993362","0.37679633080959","6.5626040997411"
"3.696097208187","0.15137100119144","-7.133725887537","-0.63637294471264","7.1636533098189"
"3.7060862083454","0.47115599267185","-7.0074488335848","-1.4136824977398","7.1641346531982"
"3.7160752082709","0.73468444727361","-5.8026282942295","-1.7737891209126","6.1120032889002"
"3.7260632081889","0.81635389700532","-4.4785999846458","-2.4173558950424","5.1544059823535"
"3.7360522083472","0.63784724704921","-2.8989992344379","-3.00329192698","4.222654149999"
"3.7460402082652","0.4167417672649","-1.5675192332268","-3.1791375821829","3.5689922966527"
"3.7560292081907","-0.029021704718471","-0.95581627607346","-3.4756282532215","3.6047772146893"
"3.7660182083491","-0.46898766238242","-0.7582242411375","-3.5580038273335","3.6680028166067"
"3.7760062082671","-0.8950356388092","-0.94687179028988","-3.1597131317854","3.4178124666462"
"3.7859952081926","-1.1911335231364","-1.4171177369356","-2.4469837367535","3.0683466489647"
"3.7959832083434","-1.238646389544","-1.8476108032465","-1.7093656682968","2.8053237864025"
"3.8059722082689","-1.0538770061731","-2.0752475863695","-1.298580057621","2.6652616109725"
"3.8159612081945","-0.74500989921391","-2.0764491891861","-1.0815249806643","2.4569040007699"
"3.8259492083453","-0.43815759658813","-1.8782344257832","-0.88937377989292","2.1238484781184"
"3.8359382082708","-0.14800839537755","-1.4664442634583","-0.60786952257156","1.5943245025412"
"3.8459262081888","0.0850690391846","-0.70641323268414","-0.3424532943964","0.78963957321172"
"3.8559152083471","0.33461093567312","0.48329693198204","-0.11415226757526","0.59880810192237"
"3.8659042082727","0.35356077488512","1.0568146473169","-0.064656180934981","1.1162628911032"
"3.8758922081906","0.42981464311481","1.7931176769733","-0.017325318250805","1.8439934375053"
"3.885881208349","0.46914846081287","2.556133711338","-0.032375457482412","2.5990321273061"
"3.895869208267","0.48040394894779","3.1936240589619","-0.021028350787237","3.2296230082908"
"3.9058582081925","0.44514640800655","3.7828169900179","-0.066178786754608","3.8094933175352"
"3.9158472083509","0.38277631480247","4.1368752533197","-0.11183852434158","4.1560513019247"
"3.9258352082688","0.38713409844786","4.5241614890099","-0.12337858915329","4.5423707758265"
"3.9358242081944","0.40405524618924","4.8367255711555","-0.086078040199354","4.8543366510418"
"3.9458122083452","0.47847414851189","4.9791935652494","-0.02564470927231","5.0021958900196"
"3.9558012082707","0.55997614860535","5.022653580308","0.050529307918623","5.0540256712591"
"3.9657902081963","0.66080816656351","4.9813295531273","0.12354465007782","5.0264873252023"
"3.975778208347","0.77312148481607","4.8287417829037","0.21806023159996","4.8951010511377"
"3.9857672082726","0.8755441647023","4.599947835803","0.32167170524597","4.6935669125314"
"3.9957552081905","0.99035044334829","4.2425899887085","0.45483034729958","4.380323556286"
"4.0057442083489","1.1179199512303","3.7589363765717","0.5264634168148","3.9568309832133"
"4.0157332082745","1.1890229706466","3.2210188490152","0.54962431110442","3.4771863530438"
"4.0257212081924","1.3206629446149","2.5601554262638","0.53361927587539","2.9297262587984"
"4.0357102083508","1.467195045948","1.8248692274094","0.56908494114876","2.4097026103323"
"4.0456982082687","1.5932355800271","1.1804768264294","0.80773203134537","2.1411109699552"
"4.0556872081943","1.6741551974416","0.60335664153099","1.1023931086063","2.0933478993954"
"4.0656762083527","1.6716471804678","0.14935893774033","1.2766670322418","2.1086941692579"
"4.0756642082706","1.5213996121287","-0.071810824871063","1.4549650096893","2.1063562741793"
"4.0856532081962","1.2526798532903","-0.35492949843407","1.5945555889606","2.0585891503609"
"4.0956412083469","0.87623881392181","-0.61826060950756","1.7516234958172","2.0538319092347"
"4.1056302082725","0.49389665488154","-0.9759599339962","1.9330883252621","2.2210948137649"
"4.115619208198","0.15376901742071","-1.4110220146179","2.0376014578342","2.4832333231944"
"4.1256072083488","-0.161165343225","-1.9555527430773","2.3419829463959","3.0553305745898"
"4.1355962082744","-0.44215011198074","-2.5423091393709","2.7911157667637","3.8012050332928"
"4.1455842081923","-0.64224661901593","-2.9340989005566","3.1436104846001","4.3478389984879"
"4.1555732083507","-0.70857545994222","-3.0262399095297","3.0503333616257","4.3548525565752"
"4.1655622082762","-0.69041583538055","-3.6620866048336","2.3710295748711","4.4169371256516"
"4.1755502081942","-0.6439245506376","-4.6626334959269","1.5290796375275","4.9490276299647"
"4.1855392083526","-0.78311079494655","-5.5725146305561","0.88502403616905","5.6964418165659"
"4.1955272082705","-1.1292506126314","-6.2934453302622","0.023662512302399","6.3939988259004"
"4.2055162081961","-1.4703426021338","-6.7255060350895","-0.93353136777878","6.9473606218694"
"4.2155042083468","-1.8751260459423","-7.0445850849152","-2.0769263219833","7.5799669955566"
"4.2254932082724","-2.1656130883098","-6.8725939142704","-2.8497270870209","7.7487658132909"
"4.2354822081979","-1.9358629752696","-6.1000416558981","-3.1669771277905","7.1405754523469"
"4.2454702083487","-1.4380161242187","-4.9536961966753","-3.2000735378265","6.0702114485383"
"4.2554592082743","-0.89579548448324","-3.4721795654297","-3.4251235127449","4.9588256232868"
"4.2654472081922","-0.38913117840886","-2.1847992646694","-3.1619052529335","3.8629542748314"
"4.2754362083506","0.24713446989655","-1.2969586247206","-2.7561090713739","3.0560291775043"
"4.2854252082761","0.8422695607692","-0.74752559065819","-2.2299625736475","2.4981884639786"
"4.2954132081941","1.2659014311433","-0.4269192481041","-1.6824743235111","2.1483682940889"
"4.3054022083525","1.4820691931248","-0.26260781049728","-1.306394276619","1.9930273358202"
"4.3153902082704","1.4249389725924","-0.16616968274117","-1.2917949485779","1.9304915509388"
"4.325379208196","1.1317780715972","-0.034357654452324","-1.3592437505722","1.7690804462311"
"4.3353682083543","0.8458633325994","0.08615053653717","-1.3883845192194","1.6280412358383"
"4.3453562082723","0.65618762366474","0.20289545953274","-1.304839501977","1.4745693916765"
"4.3553452081978","0.46983108669519","0.39756505608559","-1.1500356370211","1.3043700357889"
"4.3653332083486","0.32475501514971","0.80531947016716","-0.97571376621723","1.3061480094082"
"4.3753222082742","0.22382681049407","1.2895519566536","-0.8145557320118","1.5416042717112"
"4.3853112081997","0.1677658264339","1.9206881350279","-0.68652100503445","2.0465823645555"
"4.3952992083505","0.16454971164465","2.5599303084612","-0.60948686242104","2.6366254999989"
"4.405288208276","0.17485126309097","3.2352685135603","-0.49290975451469","3.2772694953474"
"4.415276208194","0.20733853943646","3.8208274000883","-0.43434579670429","3.8510216257918"
"4.4252652083524","0.22408986210823","4.3094254177809","-0.36177424907684","4.3303861611882"
"4.4352542082779","0.24409092105925","4.7366984224319","-0.31857735872269","4.7536705666573"
"4.4452422081959","0.26752780392766","5.0774934464693","-0.27864906191826","5.0921661524857"
"4.4552312083542","0.27485202625394","5.3434879642725","-0.21502316951752","5.3548708877143"
"4.4652192082722","0.27312943652272","5.4664163178205","-0.15189195156097","5.4753427485208"
"4.4752082081977","0.25917432546616","5.5155820459127","-0.041243915758096","5.5218219544606"
"4.4851962083485","0.18690822176635","5.3737467205524","0.04082174221985","5.3771511894915"
"4.4951852082741","0.11241389036179","5.1299950110912","0.16556040287018","5.1338967601195"
"4.5051742081996","-0.0035488213598728","4.8491438877583","0.35043766736984","4.8617913979343"
"4.5151622083504","-0.16832836512476","4.3352478915453","0.45144013166428","4.3619384351605"
"4.5251512082759","-0.3783356834203","3.7950283151865","0.54350103378296","3.852372149227"
"4.5351392081939","-0.5938219158724","3.1412031859159","0.6783448433876","3.2680167762007"
"4.5451282083523","-0.78779448777437","2.4147989076376","0.81694490432739","2.6681965624747"
"4.5551172082778","-0.99383180245757","1.6036421620846","0.98933602452278","2.1302947225701"
"4.5651052081957","-1.0803013776988","0.85112597286701","1.2336093056202","1.847500583832"
"4.5750942083541","-1.1992944820225","0.15171595036983","1.4049689769745","1.853446198428"
"4.5850822082721","-1.174291203171","-0.15686442375183","1.5554190051556","1.9552223809283"
"4.5950712081976","-1.1624739803374","-0.40253460466862","1.5196726369858","1.9551943091469"
"4.6050602081232","-1.0771341602504","-0.47328532934189","1.5802895522118","1.9701604175747"
"4.6150482082739","-0.86892920963466","-0.50977370917797","1.8575879073143","2.1131824434548"
"4.6250372081995","-0.59086687926203","-0.47044182837009","2.0545525360107","2.1889781419917"
"4.6350252083503","-0.3985826908797","-0.49832778453827","2.2235885238647","2.3133405857709"
"4.6450142082758","-0.32505461186171","-0.70834807634354","2.2760146594048","2.4057556458995"
"4.6550032082014","-0.30670411225408","-1.095247811079","2.2965348780155","2.5627539144617"
"4.664991249796","-0.27891781456769","-1.5574099820852","2.3983922052383","2.8732570664196"
"4.6749802499544","-0.18444913867861","-1.9486477661133","2.7047605776787","3.3387092391675"
"4.6849682498723","-0.013173301778734","-2.015921151638","3.0714523351192","3.6739530580032"
"4.6949572497979","0.011358819399029","-1.8429587584734","3.044806573391","3.5591393731599"
"4.7049462499563","-0.21591136157513","-2.1363930898905","2.305796867609","3.150792336106"
"4.7149342498742","-0.66325456850231","-4.0102748483419","1.2771160984039","4.2606615109259"
"4.7249232497998","-0.78421058312058","-4.6985476791859","1.0179101979733","4.8710858854468"
"4.7349112499505","-0.36181247524917","-5.1100945973396","1.1353643882275","5.2471923306718"
"4.7449002498761","0.028362216451205","-5.8658635926247","0.28931438326836","5.8730624817864"
"4.7548892498016","0.17208256993443","-6.3409820240736","-1.0402956783772","6.4280541798393"
"4.7648772499524","0.51695485744625","-5.8090514606237","-1.596498618722","6.0465799454231"
"4.774866249878","1.0769375476241","-4.9188228178024","-1.9069606268406","5.3843394420056"
"4.7848542497959","1.3386402091384","-4.0012906014919","-2.4567468327284","4.8824060756179"
"4.7948432499543","1.2520832911134","-2.7392217278481","-3.0680475014448","4.2992980489054"
"4.8048312498722","0.9432962179184","-1.9201016592979","-3.2752956283093","3.9120531169195"
"4.8148202497978","0.44214430131018","-1.471030819416","-3.1132803922892","3.4715901336225"
"4.8248092499562","-0.2661499989219","-1.2309423905611","-2.7812374806404","3.0530864570997"
"4.8347972498741","-0.95757446072996","-1.1115317219496","-2.2678361588717","2.7010243353639"
"4.8447862497997","-1.4407773256302","-1.0361768996716","-1.665934304595","2.4340992125814"
"4.8547742499504","-1.6170726317167","-0.97720656037331","-1.2066536414623","2.2418451258591"
"4.864763249876","-1.5562741604447","-0.89873400270939","-0.844884070158","1.9858351296371"
"4.8747522498015","-1.2545395602286","-0.76727456152439","-0.54721054393798","1.5690822605389"
"4.8847402499523","-0.84481112614274","-0.60876823961735","-0.21100673535839","1.0624633879753"
"4.8947292498779","-0.44675695046782","-0.29644623219967","0.00551333963871","0.5361926317012"
"4.9047172497958","-0.095554083567113","0.28795139729977","0.12232371490449","0.32712334267257"
"4.9147062499542","0.13003695979714","0.98908634841442","0.14582720121369","1.0081998750976"
"4.9246952498797","0.29189857849851","1.7030968683958","0.1231260259822","1.7323116756355"
"4.9346832497977","0.43467981889844","2.5213018476963","0.052171160392463","2.559029382819"
"4.9446722499561","0.49544276833534","3.1747194260359","-0.087914641499519","3.2143484495206"
"4.954660249874","0.5276765678823","3.8363850867748","-0.19652842640877","3.8774884289585"
"4.9646492497995","0.51933683037758","4.3649897539616","-0.30638300875202","4.406440382398"
"4.9746372499503","0.52995365638286","4.7895566672087","-0.3914388917014","4.8346590730116"
"4.9846262498759","0.53176589123905","5.0861198437214","-0.41650711119175","5.1307765690444"
"4.9946152498014","0.59615137349814","5.3046495884657","-0.44409485936165","5.3564842910854"
"5.0046032499522","0.71825983777642","5.3738765287399","-0.40935596644878","5.4370965089808"
"5.0145922498778","0.87567097619176","5.3605454617739","-0.37498954117298","5.4445261007987"
"5.0245802497957","1.0255514855683","5.2068718636036","-0.31644254028797","5.3163339186738"
"5.0345692499541","1.1933663555235","4.940998967886","-0.20727443933487","5.0872936569798"
"5.0445582498796","1.3614833803475","4.5794089061022","-0.10086856305599","4.7785769211412"
"5.0545462497976","1.4795964056253","4.1393369311094","0.010864729676396","4.3958427855346"
"5.064535249956","1.6657989415526","3.6083810985088","0.11260919650085","3.9759251875369"
"5.0745232498739","1.819504699409","3.0382126682997","0.26321065843105","3.5511425513065"
"5.0845122497994","1.9362686258554","2.4298958337307","0.48637899935246","3.1448520609506"
"5.0945012499578","1.9828196252882","1.8014037662745","0.73304145276546","2.7774050779547"
"5.1044892498758","2.0134397394955","1.1931635302305","0.92275085628033","2.5157599124754"
"5.1144782498013","2.0652596649528","0.62149002671242","1.1274542748928","2.4336598938549"
"5.1244662499521","1.9987860323489","0.30327870368958","1.3342328703403","2.4222512106553"
"5.1344552498776","1.8792094489932","0.018775994181633","1.455929800272","2.3772909528417"
"5.1444442498032","1.7181024317443","-0.27739600360394","1.5551605582237","2.3339556273923"
"5.154432249954","1.4729362808168","-0.52538577497005","1.6800114762783","2.2952146000568"
"5.1644212498795","1.2380615217984","-0.84181486666203","1.8127654910088","2.3510779074465"
"5.1744092497975","1.0835703366995","-1.3091401290894","1.9119529795647","2.5580337660464"
"5.1843982499558","1.0064616420865","-2.0298556512594","2.2336094820499","3.1815547017527"
"5.1943872498814","0.8332733271271","-2.4379579746723","2.8195800125599","3.8194260002253"
"5.2043752497993","0.6718724142015","-2.7886979430914","3.3656117212772","4.4221703966679"
"5.2143642499577","0.52274053115398","-2.7435428202152","3.7136257177591","4.6466440406887"
"5.2243522498757","0.52682744253427","-2.3255376523733","3.617971701622","4.3330580149071"
"5.2343412498012","0.63094789803028","-2.2070227771997","2.9301923757792","3.7222402055995"
"5.2443302499596","0.7272227422893","-3.2285687738657","2.192677218318","3.9699298014214"
"5.2543182498775","0.42552973039448","-5.5415080153942","1.3174753350019","5.7118410249644"
"5.2643072498031","-0.26185004789382","-6.0725766992569","1.025633200407","6.1641444400433"
"5.2742952499539","-1.3043648542464","-6.75774115026","0.17380439221859","6.8846671011505"
"5.2842842498794","-2.4005093358457","-7.2658641904593","-1.8817041635513","7.8801039374368"
"5.294273249805","-2.9946000409126","-6.5146571928263","-2.8718909579515","7.7237390828174"
"5.3042612499557","-2.6465445291996","-5.6210149455071","-4.0881474816799","7.4372681002244"
"5.3142502498813","-1.6200859943032","-4.7599294102192","-4.6726708263159","6.8640701679332"
"5.3242382497992","-0.29859968863428","-3.7924309819937","-4.5284305411577","5.9142520823286"
"5.3342272499576","0.81165017746389","-3.1294064283371","-4.076547190547","5.2029028052666"
"5.3442162498832","1.335533875823","-2.7656786245108","-3.3635330361128","4.5547758970743"
"5.3542042498011","1.4204503574967","-2.5437288433313","-2.588373504281","3.8971673102617"
"5.3641932499595","1.2458289630711","-2.3426501137018","-2.1220147866011","3.3975058668099"
"5.3741812498774","0.89536132872105","-2.1005362093449","-1.7982363295555","2.9064717739334"
"5.384170249803","0.59016663864255","-1.9324638426304","-1.593855677247","2.5735362994007"
"5.3941592499614","0.18125213697553","-1.8827952539921","-1.491467422843","2.4087850420939"
"5.4041472498793","-0.25944841369987","-1.6933361113071","-1.2467649561167","2.1187551819474"
"5.4141362498049","-0.58793300226331","-1.2459334820509","-1.0869272232056","1.7548294063501"
"5.4241242499556","-0.75821108490229","-0.62237646460533","-0.93949910916388","1.3582691519294"
"5.4341132498812","-0.78392282702029","0.15601774692535","-0.78956707119942","1.1235179998565"
"5.4441022498067","-0.69449792280793","1.0745498371124","-0.6285382604599","1.4254981803162"
"5.4540902499575","-0.55647330097854","1.9850729960203","-0.50274002037942","2.122009628235"
"5.4640792498831","-0.40945847544819","2.8364071297646","-0.4637959196046","2.9030963304612"
"5.474067249801","-0.2650555280596","3.6582028841972","-0.48011900682002","3.6990832696242"
"5.4840562499594","-0.13998683776706","4.3365559136868","-0.42664559841156","4.3597408149939"
"5.4940452498849","-0.052615987323225","4.8773122644424","-0.43800092775375","4.8972224964479"
"5.5040332498029","-0.03111069560051","5.2927569365501","-0.43006329596043","5.3102917342941"
"5.5140222499613","-0.040341037139297","5.5809100627899","-0.37991527218372","5.5939717680969"
"5.5240102498792","-0.10637079298496","5.7866648107767","-0.33332699675113","5.7972330697191"
"5.5339992498048","-0.19573696922511","5.8300622606277","-0.24578127801418","5.8385227036074"
"5.5439882499631","-0.30610517464578","5.7678186500072","-0.11529656767845","5.7770862600306"
"5.5539762498811","-0.41573410928249","5.5841763174534","0.047310388293117","5.5998301998247"
"5.5639652498066","-0.57176183301955","5.2699820315838","0.26613075792789","5.3075839877697"
"5.5739532499574","-0.70381005227566","4.7677617555857","0.41337241888046","4.8371249213144"
"5.583942249883","-0.81932369783521","4.2068646705151","0.62483697295189","4.3312149474056"
"5.5939312498085","-0.98775932282209","3.5266878944635","0.80022771477699","3.7488078612107"
"5.6039192499593","-1.107127160579","2.7675251752138","0.95002987146378","3.128495309539"
"5.6139082498848","-1.1487421598285","1.9639622086287","1.1026755291224","2.5283689266431"
"5.6238962498028","-1.1999699085206","1.2804952043295","1.1690624767542","2.1086258141786"
"5.6338852499612","-1.2923681218922","0.93312498629093","1.2254688119888","2.0106494999579"
"5.6438742498867","-1.33463618204","0.68415522158146","1.3165783721209","1.9956704927327"
"5.6538622498047","-1.3286470252275","0.51429711520672","1.4050689643621","2.0010055559567"
"5.663851249963","-1.1935835064948","0.41144283771515","1.6390739500523","2.0689345589997"
"5.6738384582568","-1.0153689980507","0.32710142970085","1.875902556181","2.1580036950388"
"5.6838274581823","-0.79750320464373","0.1927137029171","2.0882862925529","2.2436776890573"
"5.6938164583407","-0.65485803991556","-0.089323820471764","2.2118286037445","2.3084634650971"
"5.7038044582587","-0.54941702730954","-0.51484032154083","2.3536317694187","2.4711337747275"
"5.7137934581842","-0.40435561034828","-0.98014186263084","2.5008360081911","2.7163140964121"
"5.723781458335","-0.18386167623103","-1.3993743610382","2.8055016714334","3.1405243744848"
"5.7337704582606","0.028500841143541","-1.4780351990461","3.1652264714241","3.4934308298532"
"5.7437594581861","0.10671529448591","-1.1916689819098","3.2853703808784","3.4964441445669"
"5.7537474583369","0.095012402990833","-1.1651787561178","2.7822127962112","3.0178430929775"
"5.7637364582624","-0.093241637684405","-2.3133947396278","2.0198803013563","3.0725243133526"
"5.7737244581804","-0.20687485523522","-4.0518105447292","1.5676262372732","4.3494158131748"
"5.7837134583388","0.14100101904944","-4.9960809087753","1.1789290684462","5.1352292531911"
"5.7937024582643","0.71138460852206","-6.201806012392","0.38171033084393","6.2541321263032"
"5.8036904581822","0.99932029142976","-6.9614809477329","-0.87339100062847","7.0868660118906"
"5.8136794583406","1.2122929885983","-6.659530146718","-2.2200532972813","7.1237372711253"
"5.8236674582586","1.1770616139472","-5.6545364481211","-3.4713901913166","6.7386798667489"
"5.8336564581841","0.76117109164596","-4.8712013393641","-4.4882245016098","6.6672440405486"
"5.8436454583425","0.055263606570661","-4.0322621333599","-4.9056238979101","6.350380918188"
"5.8536334582604","-0.57017760302871","-3.2849195605516","-4.806739295125","5.8498326189378"
"5.863622458186","-1.0517271311581","-2.9593688124418","-4.436445068121","5.435626787126"
"5.8736104583368","-1.3379114998877","-2.7406788539886","-3.5702935051918","4.6955642339816"
"5.8835994582623","-1.4410672013462","-2.6344671052694","-2.6259915661812","3.9891005644377"
"5.8935884581879","-1.3319001236558","-2.5165574169159","-1.8256112390757","3.3822885105012"
"5.9035764583386","-1.007112217918","-2.4055375027657","-1.2212015140057","2.8796213005362"
"5.9135654582642","-0.5976344101131","-2.2787967646122","-0.79000678181648","2.484792204164"
"5.9235544581898","-0.14684445228428","-2.0396731263399","-0.48343668043613","2.1013188190922"
"5.9335424583405","0.15808382403105","-1.5903479325771","-0.25028129518032","1.6176642942186"
"5.9435314582661","0.32752009034157","-0.84248261868954","-0.12824464201927","0.91295841119844"
"5.953519458184","0.44569721572101","0.16319520413876","-0.13162893734872","0.49254934768296"
"5.9635084583424","0.39494641710073","0.69984680950642","-0.30241506993771","0.85861697146192"
"5.973497458268","0.40150067076087","1.5740102273226","-0.42887748062611","1.6800734739069"
"5.9834854581859","0.40809260241687","2.398429042697","-0.56105620242655","2.4967549954453"
"5.9934744583443","0.38248347893357","3.1379182201624","-0.66856771409512","3.2310690423472"
"6.0034624582622","0.36249426059425","3.774985229373","-0.728977637887","3.8617773068222"
"6.0134514581878","0.33265295896679","4.2465929925442","-0.84672711253166","4.3429433381672"
"6.0234404583462","0.36607812870294","4.7239368742704","-0.8829471051693","4.8196668327731"
"6.0334284582641","0.46191037528217","5.0340813785791","-0.90877893447876","5.1362647588206"
"6.0434174581897","0.56238739416003","5.2106544274092","-0.88856218636036","5.3157070933243"
"6.0534054583404","0.70795602053404","5.3088367795944","-0.83787501275539","5.4209763157926"
"6.063394458266","0.82953768722713","5.182943302989","-0.74465460777283","5.301466263347"
"6.0733834581915","0.9651398076117","4.9782773065567","-0.5771231450513","5.1037056061031"
"6.0833714583423","1.0966585249454","4.7052871799469","-0.33190901041031","4.8427833894672"
"6.0933604582679","1.2262171825022","4.3579649090767","-0.12647823471576","4.5289583207692"
"6.1033484581858","1.3671420232952","3.9156622213125","0.077674394454807","4.1481949393474"
"6.1133374583442","1.4910319514573","3.4393345856667","0.26344745239243","3.7578721682092"
"6.1233264582697","1.5865282389522","3.0174714249372","0.37960357904434","3.4302047359493"
"6.1333144581877","1.6900428132713","2.5884372389317","0.50484509110451","3.1322708402356"
"6.1433034583461","1.7399390047789","2.2052487319708","0.65144005000591","2.8835540308725"
"6.153291458264","1.7438993239403","1.8330494821072","0.80132348299026","2.6539356774957"
"6.1632804581895","1.6625892587006","1.5196083176136","0.96348080635071","2.4498383102387"
"6.1732684583403","1.5515534108877","1.2049076628685","1.0615947461128","2.232958545932"
"6.1832574582659","1.4011070372164","0.87862835168839","1.1612558591366","2.0207928841193"
"6.1932464581914","1.2282202193141","0.49988957583904","1.3038115614653","1.8596610129201"
"6.2032344583422","1.0768416532874","0.049071587920189","1.4686334609985","1.8217794075465"
"6.2132234582677","0.96469688102603","-0.47489506781101","1.6299043464661","1.952627352139"
"6.2232124581933","0.84681686729193","-1.0679863375425","1.8382318693399","2.2884033799496"
"6.2332004583441","0.7026265758276","-1.7002989757061","2.2567036449909","2.9115995695084"
"6.2431894582696","0.48545320238918","-2.3221836894751","2.6836158764362","3.5818983893509"
"6.2531774581876","0.18161864776164","-2.724286184907","3.095610691309","4.127653825436"
"6.2631664583459","-0.021290808543563","-2.6860108959675","3.3997518593073","4.3328305455727"
"6.2731544582639","0.020687266252935","-2.3312457042933","3.2068878829479","3.9647527527664"
"6.2831434581894","0.26015545170754","-2.2955999082327","2.3796243971586","3.3166356551909"
"6.2931324583478","0.48910862579942","-3.271036516428","1.8332529652119","3.7814975306213"
"6.3031204582658","0.34405850127339","-4.8829641830921","1.6520734798908","5.1663393470249"
"6.3131094581913","0.49431487698108","-5.1793279695511","1.4086018520594","5.3901711096591"
"6.3230974583421","0.13038106843829","-5.6649094086885","0.26804217617959","5.6727457584371"
"6.3330864582676","-0.42817493766546","-6.1551744675636","-1.1169240242243","6.2703290008804"
"6.3430754581932","-1.3107529373467","-6.3448768544197","-2.2550494676828","6.8600862722134"
"6.353063458344","-1.9595686107874","-6.0797325217724","-3.1102269762754","7.1046863773591"
"6.3630524582695","-2.1702936382592","-5.5257059150934","-3.838013536334","7.0692254343351"
"6.3730404581875","-1.9700433129072","-4.7025764107704","-4.1972723132372","6.6039677789441"
"6.3830294583458","-1.4444847527146","-3.6777290761471","-3.9265281021595","5.5704443534974"
"6.3930184582714","-0.85399907536805","-2.6509281867743","-3.3024079978466","4.3200269971847"
"6.4030064581893","-0.22954260997474","-1.6712552708387","-2.5496251755953","3.0571837573377"
"6.4129954583477","0.28874354884028","-0.85712404668331","-1.9316054713726","2.1328699363619"
"6.4229834582657","0.84221642419696","-0.41965232849121","-1.600294046402","1.8564421932678"
"6.4329724581912","1.0786096320301","-0.081000893712044","-1.321391800046","1.7076405278392"
"6.4429614583496","1.0710200192034","0.071668152809143","-1.119614328146","1.551050111844"
"6.4529494582675","0.77875418074429","0.052812051773071","-0.97162773191929","1.2463176305717"
"6.4629384581931","0.39114364385605","0.041761398911476","-0.82655122183263","0.91538204422036"
"6.4729264583439","0.044810210242867","0.18886623501778","-0.80359329901636","0.82670466304224"
"6.4829154582694","-0.26521530322731","0.44901002883911","-0.90149798154831","1.0414642450894"
"6.492904458195","-0.43763449005783","0.96558814287186","-1.0016982078552","1.4585210688102"
"6.5028924583457","-0.49007856924087","1.5868080282211","-1.055888959989","1.9680036123653"
"6.5128814582713","-0.46283577024937","2.2213513791561","-1.0566959488392","2.5030431934336"
"6.5228694581892","-0.34129046592861","2.890347109437","-0.97282933473587","3.0687102355366"
"6.5328584583476","-0.23809613630176","3.4861906635761","-0.843060323596","3.5945744980664"
"6.5428474582732","-0.13780524160713","4.0028348511457","-0.68567257404327","4.0634743765596"
"6.5528354581911","-0.063740753643215","4.4209645646811","-0.57185352467","4.458251565302"
"6.5628244583495","-0.017877679131925","4.7791825371981","-0.41711467344314","4.7973836605041"
"6.5728124582674","-0.065494845248759","4.8657990968227","-0.27621018826962","4.8740724751997"
"6.582801458193","-0.11373762689531","4.8692232263088","-0.17093340933323","4.8735499695626"
"6.5927904583514","-0.16906774554402","4.8141032785177","0.012813040204346","4.8170881715843"
"6.6027784582693","-0.29436064001173","4.5799029958248","0.20308198571205","4.5938439166426"
"6.6127674581949","-0.42522984132171","4.2219750452042","0.39022968750447","4.2612407711002"
"6.6227554583456","-0.57208211425692","3.7325531548262","0.54375301223248","3.8150882476513"
"6.6327444582712","-0.81278022497892","3.1864840239286","0.59519802153111","3.3419384814362"
"6.6427334581967","-1.0173605597019","2.6255389916897","0.64160035550594","2.8879280672318"
"6.6527214583475","-1.1804484674335","2.0316068923473","0.77277796089649","2.4734734536976"
"6.6627104582731","-1.2730540376902","1.4578412550688","0.9655706012249","2.162936497868"
"6.6726989999879","-1.2441535896063","0.95692373871803","1.1963859307766","1.9735654262305"
"6.6826879999135","-1.175390991345","0.67613810420036","1.3571019154787","1.9184452891554"
"6.6926759998314","-1.0671415610611","0.5969276279211","1.3780635988712","1.8423281430987"
"6.7026649999898","-0.9736380777508","0.61423830986023","1.3387305486202","1.7656328297682"
"6.7126539999153","-0.79256428085268","0.64682133436203","1.4799805676937","1.7991326962235"
"6.7226419998333","-0.53903069123626","0.65744221687317","1.7199479591846","1.9185946254812"
"6.7326309999917","-0.34226508714259","0.58027183413506","1.85640209198","1.974864430404"
"6.7426189999096","-0.26674082351848","0.37626189529896","1.8965245163441","1.951801455548"
"6.7526079998352","-0.27128564497456","-0.059358009696007","1.8454736459255","1.8662508545986"
"6.7625969999935","-0.27523686440662","-0.57013393163681","1.8564745974541","1.9614550625809"
"6.7725849999115","-0.19968866374344","-1.059947000742","2.1537540578842","2.408738206751"
"6.782573999837","0.10174292279407","-1.6021622318029","2.638616874218","3.0886201527968"
"6.7925619999878","0.41286137223244","-1.8792068177462","3.0892945289612","3.6394523575965"
"6.8025509999134","0.48980364046991","-1.9206553906202","2.9384796345234","3.5445009942508"
"6.8125399998389","0.33191982775927","-2.406736766696","1.9320814347267","3.1041087781587"
"6.8225279999897","0.030672647785395","-3.5850776052475","1.0410493844748","3.7332969434381"
"6.8325169999152","0.111789371185","-4.6053886699677","0.71046535313129","4.661208285732"
"6.8425049998332","0.58777746632695","-5.4343297219276","0.57582034885883","5.4962706402349"
"6.8524939999916","0.89726693630219","-6.6063818800449","-0.20074368417263","6.6700575354867"
"6.8624829999171","0.89249816648662","-7.1592940074205","-1.3700377106667","7.3436399006568"
"6.8724709998351","0.77271539568901","-6.5269690901041","-1.9960938280821","6.8689740978123"
"6.8824599999934","0.64305192679167","-5.5346316897869","-2.5477564054728","6.126722323051"
"6.8924479999114","0.48269265878946","-4.2692755115032","-3.261143027544","5.3939558250017"
"6.9024369998369","0.2197360253334","-2.5801476413012","-3.5807079809904","4.4189269531041"
"6.9124259999953","-0.11837278783321","-1.3729449462891","-3.6314846169949","3.884156339015"
"6.9224139999133","-0.45361982747912","-0.68123979985714","-3.4593180298805","3.5548192421905"
"6.9324029998388","-0.80932203546166","-0.45293409526348","-3.0897003257275","3.22589515554"
"6.9423909999896","-1.1551675189286","-0.5787854719162","-2.5370092231035","2.847072253632"
"6.9523799999151","-1.3709321884811","-0.90011453032494","-1.8538778489828","2.4751816725373"
"6.9623679998331","-1.3598539075255","-1.2860442119837","-1.2145093756914","2.2311757861342"
"6.9723569999915","-1.1660071603954","-1.5663100290298","-0.69248165667057","2.0718181990604"
"6.982345999917","-0.87151916071773","-1.6055062544346","-0.47500499546528","1.8875448938353"
"6.992333999835","-0.53097293570638","-1.4328537636995","-0.30019835393876","1.5572800706065"
"7.0023229999933","-0.31838959001005","-0.98683107733727","-0.2052314221859","1.0570371057242"
"7.0123109999113","-0.15003929782659","-0.1928364944458","-0.21002551775426","0.32219314485318"
"7.0222999998368","-0.17800753528252","0.46583422243595","-0.26991918722168","0.56704900409072"
"7.0322889999952","-0.098140380140394","1.265529255867","-0.32856147944927","1.3111630247407"
"7.0422769999132","-0.0051849636621773","2.0573118370771","-0.35468099176884","2.0876679536622"
"7.0522659998387","0.091475285198539","2.8000070428848","-0.38466317474842","2.8277858699015"
"7.0622539999895","0.1747800366953","3.2620475918055","-0.40466938655823","3.2916955911579"
"7.072242999915","0.31302082277834","3.8278072214127","-0.36505979955196","3.8578956462093"
"7.0822319998406","0.44525567784905","4.2195642381907","-0.36611401598901","4.2587573835073"
"7.0922199999914","0.61110496971756","4.5199134868383","-0.37618354260921","4.576525021263"
"7.1022089999169","0.80066384397447","4.6936459583044","-0.37599467754364","4.7762691476189"
"7.1121969998349","0.98765568092465","4.7748690462112","-0.38943567216396","4.89147199678"
"7.1221859999932","1.1704303597659","4.6328928029537","-0.36735190808773","4.792551551637"
"7.1321749999188","1.3338735589385","4.3922547358274","-0.29345711728558","4.5996997092549"
"7.1421629998367","1.4688555090129","4.0781253540516","-0.17303488036618","4.3380391860309"
"7.1521519999951","1.5962866571546","3.6508693063259","-0.046879457635805","3.9848683124076"
"7.1621399999131","1.6568829609454","3.233711400032","0.077086758418009","3.634294007547"
"7.1721289998386","1.7125366133451","2.8244326168299","0.20014023324475","3.309117310103"
"7.182117999997","1.7855000706017","2.4324610072374","0.2252259761095","3.0258228292753"
"7.1921059999149","1.7948078146577","2.1012261807919","0.2364567232132","2.7735173221659"
"7.2020949998405","1.7014596480131","1.8425395131111","0.30460017442703","2.5264002171971"
"7.2120829999913","1.6347297611833","1.4902190423012","0.37360082745552","2.2433617105609"
"7.2220719999168","1.4842871882021","1.1734186524153","0.44462578654289","1.9436336797236"
"7.2320609998424","1.2853096555173","0.89644657194614","0.52416896939278","1.6523893231906"
"7.2420489999931","1.1378748902678","0.59580847084522","0.59615404129028","1.4160320055633"
"7.2520379999187","1.0750753556192","0.2601291757822","0.72106343150139","1.3203736897566"
"7.2620259998366","1.0959240415692","-0.067320747971535","0.94422709465027","1.4481527523948"
"7.272014999995","1.1755822683871","-0.41014767944813","1.2374743151665","1.7554365466742"
"7.2820039999206","1.2450270174444","-0.8338521283865","1.5362401378155","2.1460278206995"
"7.2919919998385","1.2368724904954","-1.2611315649748","1.8782882201672","2.5784245228315"
"7.3019809999969","1.1079501561821","-1.7657491993904","2.4019777178764","3.1803963182136"
"7.3119689999148","0.82798342421651","-2.2677987366915","2.9144756448269","3.7845258547414"
"7.3219579998404","0.49671669390053","-2.6086879009008","3.3506954741478","4.2754111145924"
"7.3319469999988","0.23793833456933","-2.7710171324015","3.3630570727587","4.3640925143439"
"7.3419349999167","0.094809166565537","-2.9994842201471","2.8208658152819","4.1186379196043"
"7.3519239998423","-0.039395542368293","-3.8547728258371","1.9490097087622","4.3196602172416"
"7.361911999993","-0.16861272253096","-4.6395656454563","1.3596366834641","4.8376245761447"
"7.3719009999186","-0.52279684714973","-5.6363638865948","0.85240534365177","5.7243785056009"
"7.3818899998441","-0.89334506258368","-6.3966633045673","0.20569393694401","6.462018015182"
"7.3918779999949","-1.1807145157456","-6.8363189578056","-0.58610618591309","6.9622456234832"
"7.4018669999205","-1.46026989609","-6.9198247987032","-1.3601594245434","7.2018328968637"
"7.4118549998384","-1.6144020621479","-6.6200766438246","-2.1660840815306","7.1500789531752"
"7.4218439999968","-1.6092519807816","-5.7902818983793","-2.7176840937138","6.5956700367418"
"7.4318329999223","-1.3920966240764","-4.5208987426758","-3.1069548743963","5.6594723290981"
"7.4418209998403","-1.0295641373098","-2.9601359671354","-3.2356824964285","4.5046696298904"
"7.4518099999987","-0.5699792727828","-1.6207815206051","-3.2321928781271","3.6604480477603"
"7.4617979999166","0.011021416783333","-0.54074231743813","-2.9065152454376","2.9564090714002"
"7.4717869998422","0.53905985422432","0.20046418726444","-2.462765956521","2.5290289783652"
"7.4817760000005","0.86623393557966","0.65532318592072","-2.0128987258673","2.2872627723445"
"7.4917639999185","0.99550257124007","0.81452240288258","-1.6756190478802","2.1123852176537"
"7.501752999844","0.85652836158872","0.94124442994595","-1.552407104373","2.0073738388297"
"7.5117420000024","0.52985801786184","1.0227896994352","-1.5715619981289","1.9485008089108"
"7.5217299999204","0.18865164220333","1.015497636795","-1.5766707104445","1.8848648284733"
"7.5317189998459","-0.073072215467691","0.99372845292091","-1.4655870616436","1.7722249355189"
"7.5417069999967","-0.24643338873982","1.0533630359173","-1.3117871636152","1.7003201648949"
"7.5516959999222","-0.35583121217787","1.2922323203087","-1.169294026494","1.7786873647735"
"7.5616849998478","-0.38915697924793","1.7405938929319","-1.0591511946917","2.0743460434137"
"7.5716729999986","-0.41244556210935","2.1671909594536","-1.0124173235893","2.4273064976522"
"7.5816619999241","-0.35903534017503","2.7089916229248","-0.91524946331978","2.8818784791657"
"7.591649999842","-0.28095081835985","3.2068685871363","-0.80086038351059","3.31727551635"
"7.6016390000004","-0.21301691673696","3.6565867137909","-0.68506621778011","3.7263008902975"
"7.611627999926","-0.17306771613657","3.9907960188389","-0.55214968699962","4.03252707061"
"7.6216159998439","-0.14194042906165","4.2824048495293","-0.47526983778924","4.3110346553219"
"7.6316050000023","-0.15317007981241","4.457451775074","-0.40118506729603","4.4780896438863"
"7.6415929999202","-0.1810221221298","4.5564913290739","-0.31457146782428","4.5709230412462"
"7.6515819998458","-0.19219768613577","4.4687322235107","-0.20505015850067","4.4775610775846"
"7.6615710000042","-0.222152094841","4.2934128177166","0.0062348860502243","4.2991608542109"
"7.6715587081853","-0.28678363524377","4.054779176116","0.2440101746656","4.0722254340652"
"7.6815477083437","-0.37197237789631","3.6899702221155","0.47073243498802","3.7384265026033"
"7.6915357082617","-0.48186823792756","3.285209582448","0.65749484181404","3.3848335950743"
"7.7015247081872","-0.59785203617066","2.8647403979301","0.86045520544052","3.0503356807499"
"7.7115137083456","-0.72482764966786","2.4306559717655","1.0793813914061","2.7565427192257"
"7.7215017082635","-0.82985723756254","1.9762138795853","1.2641446352005","2.488402296918"
"7.7314907081891","-0.9260372838378","1.5208859342337","1.456006398797","2.3001290636278"
"7.7414787083399","-0.99708248890936","1.0976247042418","1.6590801984072","2.2251967521544"
"7.7514677082654","-0.99869763605297","0.73833201348782","1.8002220439911","2.1870826546041"
"7.761456708191","-0.9575115300715","0.46353568196297","1.8512144422531","2.1351085616144"
"7.7714447083417","-0.91172125339508","0.34120783746243","1.8521312856674","2.092378725658"
"7.7814337082673","-0.85393227092922","0.24892123281956","1.8163568508625","2.0224525490498"
"7.7914217081852","-0.80304782688618","0.12366334855556","1.7653083193302","1.9433198137052"
"7.8014107083436","-0.76690779492259","-0.14878591060638","1.6916638076305","1.8633333709122"
"7.8113997082692","-0.73084713891149","-0.49269750058651","1.5602219080925","1.791976777202"
"7.8213877081871","-0.70021774224937","-0.88787455379963","1.3809801900387","1.7848620101075"
"7.8313767083455","-0.62441005311906","-1.3840113866329","1.2582015252113","1.9719144278619"
"7.8413647082634","-0.41331471417099","-1.5998426413536","1.3396777975559","2.1272193425474"
"7.851353708189","-0.091500117592514","-1.7546617090702","1.5594079756737","2.3492473729668"
"7.8613427083474","0.21056068416685","-1.643852879405","1.9259056055546","2.5408070553176"
"7.8713307082653","0.42993933498859","-1.2716249781847","2.3045385468006","2.6669787833059"
"7.8813197081909","0.4889053985104","-0.96134891152382","2.3975741797686","2.6289888105265"
"7.8913077083416","0.35465204805136","-1.1949475157261","2.0249568539858","2.3778410167694"
"7.9012967082672","0.14478027552366","-2.258550195694","1.8900148111582","2.9485871703321"
"7.9112857081927","-0.018459668951109","-3.7783643352985","1.9997109156847","4.2749528133001"
"7.9212737083435","-0.28054977245629","-3.9249709886312","1.949339491725","4.3913585472403"
"7.9312627082691","-0.43593090377748","-4.5070133596659","1.2193871229887","4.6893613779262"
"7.941250708187","-0.61358649149537","-4.9621693968773","0.15446004867554","5.0023465906001"
"7.9512397083454","-0.59318098794669","-4.7268160432577","-0.63159810841084","4.8055769436987"
"7.9612287082709","-0.25455716298893","-4.0164594483376","-1.0404032671452","4.1568238846089"
"7.9712167081889","-0.021443859413266","-3.3529431438446","-1.6914000982046","3.7554655979209"
"7.9812057083473","0.018541703559458","-2.2753357976675","-2.5299311685562","3.4026531566632"
"7.9911947082728","-0.063073622882366","-1.3431405186653","-3.3158747202158","3.5781321796365"
"8.0011827081908","-0.18321581471711","-0.87284779429436","-3.7512496268749","3.8558144496197"
"8.0111717083491","-0.38615118149668","-0.89737510979176","-3.8296029013395","3.952246602199"
"8.0211597082671","-0.68187714636326","-1.3611125206947","-3.620808185935","3.9278283638747"
"8.0311487081926","-0.980314136222","-1.9423351120949","-3.064988822937","3.7587016346183"
"8.0411367083434","-1.1152884118259","-2.3847652691603","-2.4071729689837","3.5672756177722"
"8.051125708269","-0.98174085684121","-2.524924197793","-1.8635140603781","3.2881213432321"
"8.0611147081945","-0.71273524224758","-2.3559080904722","-1.4755191421509","2.8697475838735"
"8.0711027083453","-0.41186526250094","-2.055665845871","-1.1270525711775","2.3802610282348"
"8.0810917082708","-0.11576058078557","-1.7139130479097","-0.65826842844486","1.8396238125623"
"8.0910797081888","0.087637574840337","-1.1938195878267","-0.28742047011852","1.2310548645149"
"8.1010687083472","0.17954330647364","-0.43188294947147","-0.050762017965317","0.47046303086595"
"8.1110577082727","0.18467116842046","0.39721422314644","0.010768817067146","0.43817638792686"
"8.1210457081906","0.15470150213689","1.2428841590881","-0.032624539732933","1.2528998157348"
"8.131034708349","0.1390289176628","1.9238643425703","-0.17561527490616","1.9368592549125"
"8.141022708267","0.16684280689806","2.5136338090897","-0.27936417639256","2.5346076208091"
"8.1510117081925","0.20231969151646","3.1847684508562","-0.33926718313247","3.2091720995757"
"8.1610007083509","0.28798412343487","3.727071390152","-0.3121348599717","3.7511897010748"
"8.1709887082689","0.40953025002033","4.114464045167","-0.30446802735329","4.1459896507751"
"8.1809777081944","0.56646611943841","4.45140224576","-0.26683066964149","4.4952268490355"
"8.1909657083452","0.74992981955409","4.7122827887535","-0.23021657466888","4.7771333963677"
"8.2009547082707","0.87144139274955","4.7755578482151","-0.14993664264679","4.8567318084752"
"8.2109437081963","1.0336495868862","4.7479513889551","-0.074543247018009","4.8597356467226"
"8.2209317083471","1.188185210824","4.7064121842384","0.042309849467129","4.8542651211621"
"8.2309207082726","1.315065843612","4.5422837644815","0.17231976589188","4.7319587986187"
"8.2409087081905","1.4237302069366","4.3184652131796","0.37702904999256","4.5627075738123"
"8.2508977083489","1.494263561368","4.0448511886597","0.55118485987186","4.3471196761747"
"8.2608867082745","1.5694903296232","3.7346441191435","0.68962295293808","4.1093121576065"
"8.2708747081924","1.613447650373","3.415410118103","0.76613435447216","3.8542446010129"
"8.2808637083508","1.6658694005013","3.0734000426531","0.81267643690109","3.5890599984955"
"8.2908517082687","1.6879394236207","2.7358771204948","0.90034432590008","3.3383802991032"
"8.3008407081943","1.6617066214979","2.3588504093885","1.0020496255159","3.0544308147017"
"8.3108297083527","1.6200652366877","1.9471181344986","1.088790730834","2.7570538000495"
"8.3208177082706","1.5653124940395","1.5036729007959","1.1026825457811","2.4345726921484"
"8.3308067081962","1.4823212081194","1.0063327109814","1.1799599325657","2.1452941830183"
"8.3407947083469","1.3940623117983","0.50761140882969","1.3233032548428","1.988016744353"
"8.3507837082725","1.3260963235795","0.03068501830101","1.4615589147806","1.9737344023789"
"8.3607727081981","1.2136636490375","-0.42371555864811","1.5457219827175","2.0104155728335"
"8.3707607083488","1.0284027341008","-0.81352369844913","1.5586992931366","2.0369036496283"
"8.3807497082744","0.73481396310031","-1.3192786163092","1.762657776475","2.3210795041931"
"8.3907377081923","0.39024799659848","-1.9392372572422","2.1976403349638","2.956781642358"
"8.4007267083507","0.067695810310543","-2.3447498488426","2.6466199582815","3.5365282099759"
"8.4107157082763","-0.17608688939363","-2.646507691741","2.7205796349049","3.7995477500513"
"8.4207037081942","-0.28214156728238","-2.9875863057375","2.253885871768","3.7530357473883"
"8.4306927083526","-0.26320634610951","-3.6442373943329","1.8045612627268","4.0750687255334"
"8.4406807082705","-0.33970305651426","-4.8423377287388","1.3716439408064","5.044307677583"
"8.4506697081961","-0.59885041169822","-6.0485066360235","0.93550889611244","6.1496529362491"
"8.4606587083545","-0.96049163661897","-7.0567163032293","0.32588049452752","7.1292346899924"
"8.4706467082724","-1.4882938465476","-7.8661867117882","-0.55897101223469","8.0252327412296"
"8.480635708198","-2.1084635719657","-8.3243382775784","-1.3559061598778","8.6936015498904"
"8.4906237083487","-2.3980790868402","-8.0413032191992","-1.780949036479","8.5781769765131"
"8.5006127082743","-2.1469750884175","-7.0417123478651","-1.9575940060616","7.6175710769857"
"8.5106017081998","-1.7461481630802","-5.4623998653889","-2.3786543440819","6.208449257701"
"8.5205897083506","-1.261870945394","-3.5141941487789","-2.6698217099905","4.590188096503"
"8.5305787082762","-0.75493898302317","-1.9659490925074","-2.774588611722","3.4832787236619"
"8.5405667081941","-0.17909955762327","-0.80259583711624","-2.7181010001898","2.8397728388957"
"8.5505557083525","0.43758215747774","-0.13087179601192","-2.3929683279991","2.4361656327806"
"8.5605437082704","0.99889739155769","0.16803026676178","-1.883063056469","2.1382134234091"
"8.570532708196","1.3345585602522","0.43266121387482","-1.4517718452215","2.0188818111301"
"8.5805217083544","1.3784467376769","0.58846670687199","-1.2375111526251","1.9436672365866"
"8.5905097082723","1.0886474740505","0.63991401851177","-1.1984096521139","1.740927617141"
"8.6004987081978","0.67914211124182","0.69238049983978","-1.2016478401423","1.5442092784137"
"8.6104867083486","0.31101303510368","0.79263393580914","-1.1455449754","1.4273300090956"
"8.6204757082742","0.027484106272459","1.016456580162","-1.0684470981359","1.4749639171747"
"8.6304647081997","-0.17667172059417","1.3907304221392","-0.97473728120327","1.7074708698214"
"8.6404527083505","-0.30085781022906","1.87982837677","-0.87860086977482","2.0967140092189"
"8.650441708276","-0.34732446357608","2.3963217061758","-0.827319034338","2.5587983091806"
"8.660429708194","-0.32651575796306","2.9418914848566","-0.75641745150089","3.0550786257976"
"8.6704192499164","-0.30568658709526","3.4160802090168","-0.67731573343277","3.495969806323"
"8.680408249842","-0.24388305254281","3.8567649722099","-0.57043217618018","3.9063420052275"
"8.6903962499928","-0.20548647042364","4.2283508491516","-0.47372156817466","4.2597638100254"
"8.7003852499183","-0.22408511124551","4.4871035903692","-0.38911297895014","4.509514572343"
"8.7103732498363","-0.25453072261065","4.6524862378836","-0.25463747084141","4.666396288787"
"8.7203622499947","-0.31464828561991","4.6946698057652","-0.13959818065166","4.7072726478129"
"8.7303512499202","-0.38209730688483","4.5817360979319","0.0025476318597794","4.5976418426677"
"8.7403392498381","-0.46221428431571","4.3699557942152","0.14199261546135","4.3966257051136"
"8.7503282499965","-0.56271798111498","4.0777096170187","0.33485600709915","4.1299510641759"
"8.7603162499145","-0.69455551788211","3.669998472333","0.49449493467808","3.7677342521427"
"8.77030524984","-0.81921662069857","3.2293119549751","0.64831295907497","3.3940950586391"
"8.7802932499908","-0.95510664336383","2.7591057693958","0.83130858957767","3.0357811709701"
"8.7902822499163","-1.0676530462503","2.2788581603765","0.98970790743828","2.7041818142145"
"8.8002712498419","-1.1349780334532","1.8237565022707","1.1475657731295","2.4353993758015"
"8.8102592499927","-1.1695611711591","1.3646231889725","1.283017693162","2.2082128932535"
"8.8202482499182","-1.1289723582566","0.97076877593994","1.3835962343216","2.0325622110224"
"8.8302362498362","-1.0790948047489","0.63861476719379","1.4157231760025","1.8911759647332"
"8.8402252499945","-1.0180263382941","0.4701102912426","1.3185237407684","1.7308628386914"
"8.8502142499201","-0.94289889961481","0.32277975261211","1.1999176490307","1.559822896372"
"8.860202249838","-0.8096864631772","0.14695690155029","1.3590776896477","1.5887984976276"
"8.8701912499964","-0.59286384958774","-0.059569678902626","1.6363140642643","1.7414246488728"
"8.8801792499144","-0.4167065377906","-0.29062240540981","1.7895824503899","1.8602986501922"
"8.8901682498399","-0.35707619402558","-0.42867926001549","1.8187343287468","1.902383734915"
"8.9001562499907","-0.40093528155237","-0.7560303658247","1.8283436429501","2.0187053996952"
"8.9101452499162","-0.39623952884227","-1.0219313281775","2.0018901729584","2.2823044644208"
"8.9201342498418","-0.2087587733008","-1.4366936302185","2.3759704720974","2.7844037955762"
"8.9301222499926","0.056579929017462","-1.6262931060791","2.9096926224232","3.3338178882824"
"8.9401112499181","0.25534942416474","-1.4938180035353","3.3097322201729","3.6401954515325"
"8.9500992498361","0.25006681200117","-1.4171598368883","2.9760409784317","3.3057064780556"
"8.9600882499944","-0.14799623499624","-2.1141344940662","1.9900764584541","2.9072103217805"
"8.97007724992","-0.57353459917009","-3.5112787270546","1.4223737990856","3.8316011613732"
"8.9800652498379","-0.59533367693424","-4.4356913620234","1.2476812148094","4.6461261777753"
"8.9900542499963","-0.37464108366519","-5.4008526581526","0.91807191431522","5.4911220544164"
"9.0000422499143","-0.19366131730378","-6.3782925224304","-0.13319841225632","6.3826218769828"
"9.0100312498398","-0.075971411168575","-6.6731027036905","-1.320415315032","6.8029087862096"
"9.0200202499982","0.072923476919532","-6.0642496794462","-1.9636452895403","6.3746642916536"
"9.0300082499161","0.23660955481231","-5.228885461092","-2.4524041056633","5.7802692968513"
"9.0399972498417","0.26566996078938","-4.2656367892027","-3.0289372301102","5.2383870121835"
"9.0499852499925","0.18922159954906","-2.884033870697","-3.500147382617","4.5392166594143"
"9.059974249918","0.044453456997871","-1.7607439827919","-3.4954082143307","3.914086619837"
"9.069962249836","-0.32986475072801","-1.0759601855278","-3.3963055104017","3.5779033238196"
"9.0799512499943","-0.7901007758081","-0.74242623388767","-3.1620549416542","3.3427604465078"
"9.0899402499199","-1.2343024930358","-0.66962138235569","-2.7122093456984","3.0541733701471"
"9.0999282498378","-1.4800821630657","-0.78589677393436","-2.1326058483124","2.7122471592688"
"9.1099172499962","-1.4668268175423","-0.93458737492561","-1.6168685638905","2.3747207050365"
"9.1199052499142","-1.3186938947439","-1.0139685899019","-1.2224995958805","2.0643621657235"
"9.1298942498397","-1.0224690527469","-1.0277224105597","-0.91636335790157","1.7150446410214"
"9.1398832499981","-0.67636482998729","-0.91455715298653","-0.5926053661108","1.2826009859913"
"9.149871249916","-0.33142423968762","-0.60432961821556","-0.30084801614285","0.75204111784009"
"9.1598602498416","-0.052003235667944","-0.010692803263664","-0.048321390151978","0.071788782604184"
"9.1698482499924","0.10423570046201","0.61683681249619","0.06732250213623","0.62919397151844"
"9.1798372499179","0.18109093654901","1.3092523956299","0.11965331892483","1.3271219535116"
"9.1898262498435","0.27283745946363","2.0044454061985","0.13640326201916","2.0275225068064"
"9.1998142499942","0.29985989151523","2.5946510750055","0.052475846009329","2.6124478693328"
"9.2098032499198","0.30962370011956","3.2413899636269","-0.077852158946916","3.2570748672128"
"9.2197912498377","0.31239374544472","3.736436290741","-0.18395398914814","3.7539825621708"
"9.2297802499961","0.33800937395543","4.1534351527691","-0.27926594316959","4.1765133032416"
"9.2397682499141","0.38860653698444","4.4682685393095","-0.34730589866638","4.4985620110451"
"9.2497572498396","0.48666054278612","4.6879478466511","-0.3425895345211","4.725575212182"
"9.259746249998","0.6137929712981","4.7889514803886","-0.32570569932461","4.8390993269103"
"9.2697342499159","0.75128505796194","4.736385011673","-0.2781771916151","4.8036605590999"
"9.2797232498415","0.90757974363863","4.5538910722733","-0.19971165060997","4.6477424232182"
"9.2897112499923","1.0726570934057","4.2943144583702","-0.055612868070602","4.4266039690146"
"9.2997002499178","1.2150767748803","3.9009371781349","0.10538787603378","4.0871541494081"
"9.3096882498357","1.3608441334963","3.4212327754498","0.21138503193855","3.6880095025922"
"9.3196772499941","1.486157566309","2.949082390666","0.30546088457108","3.3164827168005"
"9.3296662499197","1.6449730597436","2.4740399730206","0.41470675349236","2.9997986343717"
"9.3396542498376","1.7834320566058","2.0031601881981","0.48896171450615","2.726236269725"
"9.349643249996","1.8066685992479","1.6003700602055","0.62346872448921","2.4927793740174"
"9.3596312499139","1.7879477150738","1.2263119804859","0.70281076312065","2.2791535872072"
"9.3696202498395","1.7121805179119","0.98995173633099","0.8820267534256","2.1655340588271"
"9.3796092499979","1.6210349974036","0.81702851951122","1.0221330571175","2.0832777181534"
"9.3895972499158","1.4814648833871","0.69855983734131","1.1088273847103","1.9779338250151"
"9.3995862498414","1.3291017924249","0.50238048970699","1.2668366932869","1.9036210070609"
"9.4095742499921","1.1847369615734","0.13570276558399","1.4082317233086","1.8453003807613"
"9.4195632499177","1.0779828836024","-0.3298934751749","1.5772747278214","1.9387295761211"
"9.4295512498356","0.98525934576988","-0.80321154892445","1.8208171069622","2.2206439849194"
"9.439540249994","0.90335666522384","-1.2533606153727","2.0776174628735","2.5891041730314"
"9.4495292499196","0.80203099608421","-1.7796603101492","2.4201309835911","3.1092569073555"
"9.4595172498375","0.60304725073278","-2.2805538529158","2.9468961167336","3.7747567584527"
"9.4695062499959","0.31193568918854","-2.8012367123365","3.4096845245361","4.4238195656686"
"9.4794942499138","0.02986110907048","-3.0403433936834","3.7211645328999","4.8053766884877"
"9.4894832498394","-0.10858498737216","-2.9643389457464","3.5983297348022","4.6633757049067"
"9.4994722499978","-0.1052513070032","-2.9736716866493","2.8178094756603","4.0980301827496"
"9.5094602499157","-0.10208196993917","-3.6881470602751","1.9927825498581","4.1933318206196"
"9.5194492498413","-0.22215644370764","-4.7231919389963","1.4641533243656","4.9499131846257"
"9.529437249992","-0.18297293599695","-4.8359800511599","0.84411165297031","4.9125051280588"
"9.5394262499176","-0.22434059802443","-5.1383740711212","-0.32830654084682","5.1537367010215"
"9.5494142498355","-0.34952787715942","-5.4831241518259","-1.5230178290606","5.7014387227159"
"9.5594032499939","-0.64935844123363","-5.8156833726168","-2.8591171306372","6.5129402148673"
"9.5693922499195","-1.150971776247","-5.8438131576777","-3.8842679357529","7.1107260985276"
"9.5793802498374","-1.3915034240484","-5.4755783200264","-4.0283667182922","6.9387302970303"
"9.5893692499958","-1.3673172935843","-4.9715535932779","-4.3578210675716","6.7510374142898"
"9.5993572499137","-1.0957090833038","-4.0598487120867","-3.96422100842","5.7791001171346"
"9.6093462498393","-0.59727151729167","-2.9929552191496","-2.9608791482449","4.252213487081"
"9.6193352499977","-0.1045278967917","-1.8830741661787","-2.2054779428244","2.9019006448916"
"9.6293232499156","0.27698085129261","-0.87094277143478","-1.6226035130024","1.8622840447969"
"9.6393122498412","0.58195232391357","-0.13929120182991","-1.2906079638004","1.4225819703767"
"9.6493002499919","0.75856235638261","0.42055923163891","-1.1081064230204","1.4071910888634"
"9.6592892499175","0.81540226265788","0.76485790729523","-1.0568701958656","1.5384612699736"
"9.6692772498354","0.72246493600309","0.88767107069492","-1.0832914245129","1.575892072423"
"9.6792662083171","0.51061154209077","0.90933558940887","-1.0217512339354","1.4599968990139"
"9.6892552082427","0.25207565948367","0.9163510787487","-0.99008680701256","1.3724114991679"
"9.6992432081606","-0.013328143358231","1.09644356668","-1.0556604069471","1.5220988894008"
"9.709232208319","-0.22331949144602","1.4953803795576","-1.1267491006851","1.8856292346907"
"9.7192202082369","-0.36791302151978","1.9116834229231","-1.2201402443647","2.2975281754096"
"9.7292092081625","-0.41042608000338","2.5400930446386","-1.2478238868713","2.8596480019777"
"9.7391972083133","-0.38219718463719","3.1875154727697","-1.2679780697823","3.4516804548712"
"9.7491862082388","-0.30573226846755","3.7481535261869","-1.2608742874861","3.9663498389191"
"9.7591752081644","-0.20452054694295","4.3059819924831","-1.2374532651901","4.4849303402885"
"9.7691632083151","-0.077917218357325","4.7156788516045","-1.1574399662018","4.8562707296595"
"9.7791522082407","0.04282785795629","5.0958051717281","-0.93070131540298","5.1802769725297"
"9.7891402081586","0.18957192085683","5.3479651772976","-0.63766868770123","5.3891827215302"
"9.799129208317","0.27669061012566","5.3140332001448","-0.44801190912724","5.3400581660402"
"9.809117208235","0.26839501909912","5.1371987807751","-0.26514023959637","5.1510335415456"
"9.8191062081605","0.18724673900753","4.7999021458626","-0.10588545581326","4.8047199378193"
"9.8290952083189","0.021766771897674","4.4113996893167","0.085203872323036","4.4122761372246"
"9.8390832082368","-0.16892361167818","3.9800903517008","0.36324248492718","4.0001999321459"
"9.8490722081624","-0.38356163240969","3.4742529881001","0.56130405128002","3.5401434418908"
"9.8590602083132","-0.57860461022705","2.959025580883","0.76221438109875","3.1099174339602"
"9.8690492082387","-0.73987129300833","2.4006001138687","0.90260076642036","2.6692655507587"
"9.8790382081643","-0.84240368127823","1.834042339325","1.0591102641821","2.2792695795723"
"9.889026208315","-0.90318504944444","1.228861951232","1.1701839727163","1.9222839173046"
"9.8990152082406","-0.9129911224544","0.72414491415024","1.2361896818876","1.6988536063992"
"9.9090032081585","-0.90569503985345","0.29023590445518","1.3120795243979","1.6205162954423"
"9.9189922083169","-0.96851591683924","-0.016441785693169","1.3861315870285","1.6910512085818"
"9.9289802082349","-1.0456327244639","-0.25620978713036","1.4336378753185","1.7928493542512"
"9.9389692081604","-1.1028644672781","-0.46963374316692","1.3845399749279","1.831342902921"
"9.9489582083188","-1.0641543647647","-0.64069813013077","1.2577664923668","1.7677372981644"
"9.9589462082367","-1.0057842421532","-0.87374124884605","1.2145286715031","1.8028049272181"
"9.9689352081623","-0.91206009954214","-1.1807276719809","1.2737644743919","1.9617460072041"
"9.9789232083131","-0.7325849314034","-1.6779351300001","1.5419821035862","2.3937117182292"
"9.9889122082386","-0.53697521220893","-2.0915461152792","1.8810223782063","2.8637654789069"
"9.9989002081566","-0.3345321444422","-2.2809918093681","2.4424661779404","3.3586420500631"
"10.008889208315","-0.04531895454973","-2.183729224205","3.1254045939445","3.8129884615795"
"10.01887820824","0.23441662967205","-1.7893409603834","3.3991782474518","3.8485198436181"
"10.028866208158","0.27449620490894","-1.3622538971901","3.1021467089653","3.3991760841215"
"10.038855208317","0.052004660926759","-1.5002651435137","2.3479646480083","2.7868329648361"
"10.048843208235","-0.23593781936914","-2.3561700457335","1.9701549947262","3.0803757306966"
"10.05883220816","-0.3630384901911","-3.6611147975922","1.9259096986055","4.152672232875"
"10.068820208311","-0.31977380868047","-4.2479337590933","1.8670182967186","4.6511239319808"
"10.078809208237","-0.27181165684015","-5.2135739421844","0.9766446429491","5.3112211012177"
"10.088798208162","-0.42973972566426","-5.5853042453527","-0.10419679820538","5.6027811591856"
"10.098786208313","-0.49860194586217","-5.0160930043459","-0.95141507685184","5.1298132107443"
"10.108775208239","-0.46763143725693","-4.1049219739437","-2.1567104101181","4.6605217912149"
"10.118763208156","-0.47462843477726","-2.9364974284172","-3.5625488680601","4.6411252660876"
"10.128752208315","-0.44525969780982","-1.843452848196","-4.56058788836","4.9391837877803"
"10.138740208233","-0.43660326048732","-1.1360847651958","-4.9006414854527","5.0495146271417"
"10.148729208158","-0.49053468860686","-0.80922482550144","-4.7490138280392","4.8423755985923"
"10.158718208317","-0.73116537362337","-0.80614626646042","-4.1955269193649","4.3343881618551"
"10.168706208235","-0.92358320742846","-1.0262816566229","-3.3235866129398","3.5989565089728"
"10.17869520816","-0.91083145335317","-1.3024187546968","-2.3305832147598","2.8209088375777"
"10.188683208311","-0.79932380832732","-1.4087936407328","-1.5723490333557","2.2574099218845"
"10.198672208237","-0.6233158197999","-1.4282613605261","-1.103152077198","1.9092924424014"
"10.208661208162","-0.39589278895408","-1.431832255125","-0.85118035197258","1.7121281198399"
"10.218649208313","-0.18230772385374","-1.3606388962269","-0.6617117806524","1.5239543276478"
"10.228638208238","0.038277938459069","-1.0565351504087","-0.50447437763214","1.1714205574042"
"10.238626208156","0.20471531404182","-0.46495129287243","-0.4379529440403","0.67073902953425"
"10.248615208315","0.32996481120586","0.20441982865334","-0.41885352574289","0.57105386699332"
"10.258603208233","0.38186422225088","0.84016361296177","-0.40753397405148","1.0088503956417"
"10.268592208158","0.35726348765194","1.4060588979721","-0.38411942023784","1.5007286740712"
"10.278581208317","0.21480097532272","1.8700752210617","-0.41944299817085","1.9285365488222"
"10.288569208235","0.19076011162251","2.6793707978725","-0.501497011967","2.7325659270529"
"10.29855820816","0.13970036074519","3.3331304383278","-0.65418012835085","3.3995920858286"
"10.308546208311","0.22833439249545","3.9923186337948","-0.72628441035748","4.0642629975519"
"10.318535208236","0.41630512643605","4.479708032012","-0.74412251114845","4.5601329281028"
"10.328523208154","0.62799498103559","4.7921399670839","-0.71706510543823","4.8860173480828"
"10.338512208313","0.86464795142412","4.8452771240473","-0.58503969032317","4.9564703094008"
"10.348501208238","1.1094555218518","4.590694617033","-0.37891481358558","4.7380317704483"
"10.358489208156","1.2798666286469","4.2347775238752","-0.072020703367889","4.4245436200309"
"10.368478208315","1.4146639528871","3.9469933569431","0.13978879988194","4.1951843306253"
"10.378466208233","1.5313113735616","3.7212908327579","0.2806640124321","4.0338185721029"
"10.388455208158","1.6406538677216","3.4975453716516","0.45122082453221","3.8894946937775"
"10.398443208309","1.7439338225126","3.2596180737019","0.70354049563408","3.7631614890547"
"10.408432208234","1.8445177723467","2.8450732880831","0.97388358771801","3.5277665837599"
"10.41842120816","1.8227884957194","2.3296353811026","1.2037890905142","3.1935665146436"
"10.428409208311","1.7507239016891","1.8268841779232","1.3355619424582","2.8611650916426"
"10.438398208236","1.6298274555802","1.391446121335","1.4392763453722","2.5814678463791"
"10.448386208154","1.4647262053192","1.0328872561455","1.5234119313955","2.352246341941"
"10.458375208313","1.3539733627439","0.75431654691696","1.4697953027487","2.1360092583963"
"10.468363208231","1.24307536304","0.44194132983685","1.4281409078836","1.944256914604"
"10.478352208156","1.1293597362936","0.032584778666496","1.4014963155985","1.8001964071728"
"10.488341208315","1.0897736477852","-0.32657167196274","1.4268907731771","1.8249035423588"
"10.498329208232","1.1099564089626","-0.61604977726936","1.4440324705839","1.9226935101496"
"10.508318208158","1.1393890998513","-0.88222088098526","1.4292033469677","2.0295672964181"
"10.518306208309","1.1415099580586","-1.1072632545233","1.4998885828257","2.1860335450434"
"10.528295208234","1.0565931840241","-1.4124768018723","1.8409823995829","2.5496462632937"
"10.538283208152","0.84752087205648","-1.9876779305935","2.4065338683128","3.2342789681282"
"10.548272208311","0.57163235373795","-2.5952802354097","3.10288813591","4.0853589600082"
"10.558261208236","0.46335953459144","-2.9121847057343","3.2958632093668","4.4224694587376"
"10.568249208154","0.39712556473911","-3.0366701728106","2.570754674077","3.9984814676194"
"10.578238208313","0.19312366582453","-3.435287142992","1.874320884347","3.9181083806611"
"10.58822620823","0.01423299998045","-4.0079435634613","1.9664367502928","4.4643798762069"
"10.598215208156","-0.28217909909785","-5.0891036778688","1.9300857800245","5.450122237741"
"10.608203208307","-0.62462574228644","-5.9308407765627","1.5920576584339","6.1724935984287"
"10.618192208232","-1.3093898051977","-6.3880620503426","0.67907165229321","6.5561403836351"
"10.628181208158","-2.2279982015491","-6.6667923885584","-0.57513337410986","7.0527211157298"
"10.638169208309","-2.92384580791","-6.6446934217215","-1.6677149279416","7.4486306162932"
"10.648158208234","-3.0445259070396","-6.162620896697","-2.2293948090076","7.2261494261794"
"10.658146208152","-2.6414995515347","-5.3062008547783","-2.7907655185461","6.5514623994581"
"10.668135208311","-1.8618264077604","-4.0564637589455","-3.1717619043589","5.4755245756196"
"10.678122958168","-0.93649078980088","-2.6748181557655","-2.9911273795366","4.1204987764115"
"10.688111958327","0.01719417616725","-1.5883084237576","-2.4850093495846","2.9492864825574"
"10.698100958252","0.71469215914607","-0.82647001862526","-2.0394655501843","2.3137107218535"
"10.70808895817","1.055498585254","-0.27572662353516","-1.559917268157","1.9035346904886"
"10.718077958329","1.1349939671159","0.16335307896137","-1.2351178872585","1.6853521083802"
"10.728065958247","1.0739483048022","0.33047936618328","-1.2669986611605","1.6934778357696"
"10.738054958172","0.77634753987193","0.58730077207088","-1.3999625909328","1.7051489540658"
"10.748042958323","0.48254614949226","0.79434775471687","-1.4425057625771","1.7160017531697"
"10.758031958248","0.28973041266203","0.97046296656132","-1.4012372839451","1.7289326208404"
"10.768020958174","0.22381343498826","1.1193921339512","-1.2820024703443","1.7165842645212"
"10.778008958325","0.31016160741448","1.4776919674873","-1.179998524189","1.9162907635791"
"10.78799795825","0.47644955009222","1.945643466711","-1.1758025622368","2.3227234744371"
"10.797985958168","0.63673971131444","2.4390554970503","-1.1948311561346","2.7896327122627"
"10.807974958327","0.79401943355799","2.9362787425518","-1.1872327724844","3.2652291452347"
"10.817962958245","0.91526349663734","3.4356040620804","-1.1996165905148","3.7523542615135"
"10.82795195817","0.98519137188792","3.8758689951897","-1.1424775260687","4.1591125741782"
"10.837940958329","1.0244014844298","4.1783513081074","-1.022880404368","4.4220246920279"
"10.847928958246","0.96016397327185","4.3791493713856","-0.89076775610447","4.5708129766805"
"10.857917958172","0.80957244247198","4.5203029114008","-0.80243679285049","4.6618076705232"
"10.867905958323","0.66218723237514","4.6043870419264","-0.74120365418494","4.7104410429977"
"10.877894958248","0.47210631139576","4.5056971514225","-0.66065708912909","4.5782812254178"
"10.887882958166","0.22394653223455","4.2591042798758","-0.55514408268034","4.3009657367492"
"10.897871958325","-0.047844549715519","3.9152032148838","-0.41797710120678","3.9377417604392"
"10.90786095825","-0.3686529135704","3.4658137017488","-0.27882265113294","3.4964999151578"
"10.917848958168","-0.69675531350076","3.004635617137","-0.15098738729954","3.0880576985839"
"10.927837958327","-0.94166762217879","2.5912427330017","-0.031900727525353","2.7572258645985"
"10.937825958245","-1.0807982448488","2.1968889677525","0.13926196575165","2.4523131687869"
"10.94781495817","-1.0671100591868","1.7537787795067","0.35739117622375","2.0837927772953"
"10.957803958328","-1.0075685200095","1.3061422616243","0.66766256511211","1.7795997389771"
"10.967791958246","-0.85247960329056","0.91722231388092","1.026908551231","1.6194318200217"
"10.977780958172","-0.60731630288064","0.73165683209896","1.2018011102825","1.5324753571846"
"10.987768958323","-0.34881506502628","0.74806178033352","1.1629123753309","1.4260552476965"
"10.997757958248","-0.14197865523398","0.79584931969643","0.98802456714213","1.2766074664828"
"11.007745958166","-0.033122210875154","0.82616245508194","0.78832578040659","1.1424093045375"
"11.017734958325","0.048639478683472","0.79058331727982","0.81716651380062","1.1380460850619"
"11.02772395825","0.12318913936615","0.64480404496193","1.0668239110708","1.2526216817896"
"11.037711958168","0.14930280447006","0.32611032664776","1.2882714164257","1.3372668076896"
"11.047700958326","0.049882012009621","-0.07859651863575","1.4057677066326","1.4088465043698"
"11.057688958244","-0.1499734801054","-0.64351531863213","1.5251795446873","1.6621602370354"
"11.06767795817","-0.34878604821861","-1.2427151745558","1.8357117193937","2.2440655581383"
"11.077665958321","-0.407067585513","-1.9555205833912","2.3185993462801","3.0603378407967"
"11.087654958246","-0.37030979521573","-2.3876713353395","2.992210868597","3.8459627705147"
"11.097643958172","-0.26260028220713","-2.4876552146673","3.6061258274317","4.3887960602592"
"11.107631958323","-0.25562543101609","-2.1887005269527","4.0248841166496","4.5886214171714"
"11.117620958248","-0.37813329666853","-1.5785342180729","4.0556609362364","4.3684254254125"
"11.127608958166","-0.81564134068787","-1.127182379365","3.2444995129108","3.5302390857092"
"11.137597958324","-1.4012467856705","-1.0891129124165","2.2986112242937","2.9040098227784"
"11.14758695825","-1.6607595187426","-1.8910310572386","1.9459855288267","3.1813488203807"
"11.157574958168","-1.5694527612627","-3.6372371077538","2.1050473362207","4.4859670123158"
"11.167563958326","-1.4209399156272","-4.3772636443377","1.8526791697741","4.9610409554828"
"11.177551958244","-1.3440257871151","-4.5581063300371","0.64214239239693","4.7953191222762"
"11.18754095817","-0.97980162777007","-4.537874379158","-0.67181160315871","4.6908044023321"
"11.197529958328","-0.34913004722446","-4.0834048050642","-1.6919741486013","4.433831651228"
"11.207517958246","0.16825015861541","-3.5863634079695","-2.6738147735596","4.4765607393625"
"11.217506958172","0.41275444127619","-3.0038889276981","-3.7004823464155","4.7840656888126"
"11.227494958322","0.3307281286642","-2.5736496305466","-4.2033762216568","4.9397798712789"
"11.237483958248","-0.099327291827649","-2.3533370697498","-4.1646699929237","4.7846146579134"
"11.247471958166","-0.6927184689045","-2.3673715567589","-3.6860262751579","4.435211005811"
"11.257460958324","-1.2625644251704","-2.3020306760073","-2.9236271220446","3.9295050209586"
"11.26744995825","-1.7406640595198","-2.1383717876673","-2.3309732240438","3.6105375557671"
"11.277437958168","-1.8457768240571","-1.777382234931","-1.932325848341","3.2093399442006"
"11.287426958326","-1.608639484942","-1.3309245157242","-1.6176298713684","2.6411753936105"
"11.297414958244","-1.1159054392576","-0.93028499364853","-1.3385780824721","1.975466122627"
"11.30740395817","-0.46025999866426","-0.67007746517658","-1.028149915114","1.3107003180197"
"11.317392958328","0.17335653204471","-0.47309763371944","-0.73885775126517","0.89430679011071"
"11.327380958246","0.64914443314075","-0.16641292691231","-0.52702489569783","0.85254735821916"
"11.337369958172","0.906644846946","0.39385792136192","-0.49593510389328","1.1059297301307"
"11.347357958322","1.0398059740663","1.1546695554256","-0.50070643186569","1.6325333616323"
"11.357346958248","1.0105101811141","1.7728219914436","-0.5317767816782","2.1087473023132"
"11.367334958166","0.90163349077106","2.31179669559","-0.48442434825003","2.5282432364388"
"11.377323958324","0.81349314674735","2.8085018777847","-0.34792570352554","2.9445723276053"
"11.38731295825","0.71604491248727","3.1316926896572","-0.24838095009327","3.2220975335208"
"11.397300958168","0.72765945620835","3.5449282836914","-0.19282523855567","3.6239738400475"
"11.407289958326","0.72619714066386","3.9305907475948","-0.22916064061224","4.003675874917"
"11.417277958244","0.73437469102442","4.3266144776344","-0.32329021453857","4.4003881178493"
"11.42726695817","0.73612797863781","4.5215062683821","-0.44299967586994","4.6024072015384"
"11.437255958328","0.81663383245468","4.5938556218147","-0.4554910826683","4.6880563581061"
"11.447243958246","0.94184523135424","4.4431167411804","-0.39769544899464","4.5592236713868"
"11.457232958172","1.1353980828077","4.1311771416664","-0.19934451855719","4.288996574882"
"11.467220958322","1.3119158023596","3.6295176136494","0.10847045503557","3.8608660971196"
"11.477209958248","1.4518069285154","3.1443039643764","0.32196925543249","3.4782258379126"
"11.487198958173","1.5132813379169","2.68873511374","0.45797848820686","3.1191443081727"
"11.497186958324","1.5654775317013","2.3230017149448","0.58449988268316","2.8615899396585"
"11.50717595825","1.5684262825549","2.0924670517445","0.62832132875919","2.6894547883574"
"11.517163958168","1.4752460771799","1.9640323752165","0.63897612512112","2.5381222680572"
"11.527152958326","1.2748011857271","1.8491632390022","0.6741892272234","2.3450061538752"
"11.537140958244","1.0454511684179","1.6995470237732","0.74042005419731","2.1282974623441"
"11.54712995817","0.87278157457709","1.5423422920704","0.80276949942112","1.9455092629003"
"11.557118958328","0.75971396550536","1.3848650801182","0.95792653620243","1.847333171974"
"11.567106958246","0.73652339659631","1.1783601343632","1.1853165668249","1.8264650786642"
"11.577095958171","0.74963570460677","0.90944434762001","1.5137944310904","1.9184932344524"
"11.587083958322","0.77046670272946","0.62122047007084","1.8255083280802","2.0765390601527"
"11.597072958248","0.81046099998057","0.2436862206459","2.1073400294781","2.2709275652171"
"11.607061958173","0.85026402018964","-0.23831146001816","2.5263994503021","2.6762726764087"
"11.617049958324","0.65403986826539","-0.91212354183197","3.0623376953602","3.261540995491"
"11.62703895825","0.25230764776468","-1.5611095154285","3.5099408841133","3.8497281823854"
"11.637026958168","-0.094035360664129","-1.9025038790703","3.7186455523968","4.1781201997182"
"11.647015958326","-0.2953318259865","-1.9466965502501","3.2167071121931","3.7714788865682"
"11.657004958251","-0.59314309068024","-2.2026291793585","1.6655706077814","2.8244502964804"
"11.666992958169","-0.85258799605072","-2.9503488975763","0.2926028573513","3.084976716374"
"11.676982333185","-1.0396912955493","-4.0970071828365","-0.11820968706161","4.2285221267448"
"11.686970333336","-1.241473518312","-5.7429896181822","-0.42180001080036","5.8907640845929"
"11.696959333261","-1.4721306806803","-6.9383300668001","-1.0254110062122","7.1665236055234"
"11.706947333179","-1.8160276526213","-7.4116270905733","-1.6999826413393","7.8179353761502"
"11.716936333338","-2.1234608030319","-7.374513643384","-2.4101357531548","8.0437113080409"
"11.726925333263","-2.1260214449465","-6.6046148514748","-2.9729980874062","7.5484847584409"
"11.736913333181","-2.0387270468473","-5.3799716663361","-3.4268344080448","6.6965436728424"
"11.74690233334","-1.6948943942785","-4.2524156498909","-3.5266124653816","5.7786418255658"
"11.756890333258","-1.1109250733256","-3.4070252108574","-2.8812412405014","4.5982090417822"
"11.766879333183","-0.51023359268904","-2.5767392992973","-2.0263245177269","3.3175163581801"
"11.776868333342","0.0027673409879208","-1.8798131740093","-1.3892019599676","2.3374317771719"
"11.786856333259","0.30434567436576","-1.2699351328611","-1.0156935185194","1.6543865493719"
"11.796845333185","0.39744811177254","-0.76611213505268","-0.84220546066761","1.2059033307048"
"11.806833333336","0.2904475736618","-0.5327491736412","-0.8655281766504","1.0570338214254"
"11.816822333261","0.013825522139668","-0.29430088877678","-0.90676866173744","0.95343251680774"
"11.826810333179","-0.25494941979647","-0.070457779169083","-0.85210947453976","0.89221861777281"
"11.836799333338","-0.46027549378574","0.11255422353745","-0.79980554580688","0.92962943935703"
"11.846788333263","-0.55714558459818","0.43487438499928","-0.67177549660206","0.97509448311468"
"11.856776333181","-0.51873697914183","0.86940086066723","-0.55055222768337","1.1524121074794"
"11.86676533334","-0.44225707948208","1.4167844456434","-0.48933012563735","1.562790280756"
"11.876753333258","-0.28886122405529","2.0426604688168","-0.46644470829517","2.1150586903266"
"11.886742333183","-0.11363252319396","2.6884439224005","-0.49421605903655","2.735853173551"
"11.896731333341","0.027565748021007","3.3433741754293","-0.50211736500263","3.3809810108353"
"11.906719333259","0.18624412424862","3.8823360157013","-0.49349392790347","3.9180040925841"
"11.916708333185","0.32029804810882","4.3792639768124","-0.41311514139175","4.4103523598774"
"11.926696333336","0.40187920488417","4.68817530334","-0.31510177373886","4.7159075158424"
"11.936685333261","0.45992999643087","4.8844938147068","-0.20521388053894","4.9103898179566"
"11.946673333179","0.49634309336543","5.0631174820662","-0.071708516869694","5.0878932000315"
"11.956662333338","0.46932691052556","5.099191879034","0.08562779545784","5.1214605033628"
"11.966651333263","0.386685872823","5.0208695948124","0.24394991179928","5.0416434832125"
"11.976639333181","0.26325049258769","4.8920571881533","0.37113388717175","4.9131725713857"
"11.986628333339","0.055435258895159","4.6206955111027","0.52832458555698","4.6511317915059"
"11.996616333257","-0.13854787454009","4.3314805305004","0.68635318994522","4.3877100862513"
"12.006605333183","-0.3187252201885","3.961223140955","0.78295913279057","4.0504196748043"
"12.016594333341","-0.54867750070989","3.5567484301329","0.9008553725481","3.7098580562181"
"12.026582333259","-0.69742518514395","3.0714646142721","1.0606182610989","3.3234331438101"
"12.036571333185","-0.82628100737929","2.4620900183916","1.202985098362","2.8621321962307"
"12.046559333336","-0.97051120609045","1.7492384165525","1.2787954187393","2.3742461460596"
"12.056548333261","-1.2289720250666","1.0173354166746","1.231949865818","2.0156993973075"
"12.066536333179","-1.4102200689912","0.49530418932438","1.4956078362465","2.1144478434782"
"12.076525333337","-1.3492141677439","0.15224629282951","1.9102292203903","2.343615471564"
"12.086514333263","-1.1366771612316","-0.037791724205017","2.1892688763142","2.4670552073437"
"12.096502333181","-0.9754064219445","-0.032976542115211","2.365454839468","2.5588829081971"
"12.106491333339","-0.98161916166544","-0.041395363211632","2.3920994317532","2.5860064667433"
"12.116479333257","-1.1013778126985","-0.2490703368187","2.4293578898907","2.6789641423807"
"12.126468333183","-1.1229599587619","-0.73258946299553","2.7218180751801","3.0341423870101"
"12.136457333341","-0.93916552551091","-1.456458388567","3.1798620522022","3.6214397127346"
"12.146445333259","-0.73807276256382","-1.780729765892","3.8671554744244","4.3209537564458"
"12.156434333185","-0.48698586724699","-1.9615332752466","4.4088637518883","4.8500358356936"
"12.166422333336","-0.36858965400606","-1.8866251802444","4.652010859251","5.0335293719578"
"12.176411333261","-0.61473123013973","-1.7341987931728","3.7813955318928","4.2052695642693"
"12.186399333179","-1.1602409286797","-2.0768140554428","2.7893604326248","3.6660397238111"
"12.196388333337","-1.7684859886765","-3.4843686711788","2.2480597060919","4.5080084484162"
"12.206377333263","-1.767465941906","-4.6267584890127","1.929202850461","5.3153225311053"
"12.216365333181","-1.354643599838","-5.7569592010975","1.0949712377787","6.0146987071046"
"12.226354333339","-1.1904641631246","-6.694749096036","-0.80004995942116","6.8466743985769"
"12.236342333257","-0.9899583144486","-7.0450569552183","-2.2846743857861","7.4721203159266"
"12.246331333183","-0.5113193840906","-6.6447665119171","-3.2941376960278","7.434091247142"
"12.256320333341","0.0056705566495657","-6.1521982347965","-4.4868615156412","7.6145585253505"
"12.266308333259","0.37895680390298","-5.5838541358709","-5.0817543125153","7.5595808192435"
"12.276297333185","0.47353789251298","-4.9378017103672","-4.9806810969114","7.029460011671"
"12.286285333335","0.21861431010067","-4.5697528141737","-4.4371642756462","6.373292697523"
"12.296274333261","-0.26374874845147","-3.9285512387753","-3.6837230569124","5.3919285787203"
"12.306262333179","-0.85815417990088","-2.9181003338099","-2.9014983344078","4.2036211460161"
"12.316251333337","-1.1882000481337","-1.8310532426834","-2.2465324133635","3.1323287209709"
"12.326240333263","-1.1460213772953","-0.68390671491623","-1.8314689797163","2.2661359216932"
"12.336228333181","-1.2289595997334","-0.095148231983185","-1.4963206118345","1.938651659589"
"12.346217333339","-0.92169762656093","0.56245302915573","-1.121676056385","1.5569319510762"
"12.356205333257","-0.55055153332651","0.98657789289951","-0.73419218480587","1.3473978973697"
"12.366194333183","-0.16248213618994","1.3662089538574","-0.2773831762746","1.4035201376045"
"12.376183333341","0.19495801046491","1.7602697736025","0.0021938753128052","1.7710344758903"
"12.386171333259","0.5282199569419","2.1938630336523","0.14692532658577","2.2613355312581"
"12.396160333185","0.77653786674142","2.7736635822058","0.14720950126648","2.8840754780347"
"12.406148333335","0.94111096724868","3.3810489553213","0.027522844076157","3.5096922084281"
"12.416137333261","1.0355521977693","3.9764884668589","-0.16134631454945","4.1122817892972"
"12.426125333179","1.1263009846956","4.5248906368017","-0.37465804059058","4.6779865145724"
"12.436114333337","1.1895930741727","4.8687905323505","-0.59492612600327","5.0471962539045"
"12.446103333263","1.2142028354108","5.0531854015589","-0.74549953043461","5.2502134030843"
"12.456091333181","1.2393240818381","5.0665053588152","-0.84419175982475","5.2837543904011"
"12.466080333339","1.1945760713518","4.8449490952492","-0.80884768009186","5.0551734189236"
"12.476068333257","1.1620613130927","4.6187437105179","-0.70453393757343","4.8145143086326"
"12.486057333183","1.1254136697203","4.2971181982756","-0.5088849323988","4.47110105146"
"12.496045333333","1.0813274909556","3.8893520897627","-0.22303093135357","4.0430275310933"
"12.506034333259","1.0231282532215","3.4701868343353","0.1470627361536","3.6208583976868"
"12.516023333184","0.96312631890178","3.0977957957983","0.52002212405205","3.2854792813425"
"12.526011333335","0.9796782515198","2.7595261842012","0.78784214258194","3.0323999537365"
"12.536000333261","1.0679970818013","2.5135180342197","0.97814445376396","2.9008890443299"
"12.545988333179","1.227558606863","2.2177056401968","0.9917029774189","2.7218731115292"
"12.555977333337","1.4052326864004","1.8624948906898","0.92761749386787","2.5107848047381"
"12.565966333263","1.5771403880417","1.4773785567284","0.94833067059517","2.3599470892935"
"12.575954333181","1.7638555786014","1.0373937052488","1.0081266367435","2.2811601253671"
"12.585943333339","1.9218336045742","0.50692962348461","1.0407903528214","2.2435834295526"
"12.595931333257","2.0463026994467","0.030977963805199","1.1196985280514","2.3328178595263"
"12.605920333182","2.0265775559843","-0.42743438780308","1.2946752870083","2.4425193643215"
"12.615908333333","1.9393154637516","-0.84762407541275","1.5580923521519","2.6281291480822"
"12.625897333259","1.7316426828504","-1.1032239979506","1.8918794882298","2.791934377579"
"12.635886333184","1.4177020199597","-1.2872311967611","2.2936697423458","2.9879364213894"
"12.645874333335","1.0132809573412","-1.6156207680702","2.5959766387939","3.2211897606155"
"12.655863333261","0.46412537366152","-2.0172765362263","2.8542785596848","3.5258648701222"
"12.665851333179","-0.17700150355697","-2.3983261317015","3.0877777612209","3.9137794098485"
"12.675840249984","-0.74773623660207","-2.5557893103361","3.2281869506836","4.1847771107814"
"12.685828249902","-1.056059333235","-2.4133528912067","2.9046406280994","3.921284313999"
"12.695817249827","-1.1846562699974","-2.4720758932829","2.1536365288496","3.4860751567615"
"12.705806249985","-1.3317070193589","-3.2701629424095","1.6623511308432","3.9026683868263"
"12.715794249903","-1.560207143873","-4.3989556449652","1.4719716364145","4.8940532891022"
"12.725783249829","-1.6879845933616","-4.6059102416039","0.81689812660217","4.9730296289469"
"12.73577124998","-2.1085147351027","-5.2916816335917","-0.43851190131158","5.7131446320768"
"12.745760249905","-2.4037115634978","-5.7379721224308","-2.1084211796522","6.5686827620987"
"12.755749249831","-2.7726824194193","-5.7001114010811","-3.394228579402","7.1902590657723"
"12.765737249982","-2.7035060575604","-5.4722728890181","-4.4707840114832","7.5658856224821"
"12.775726249907","-1.8732315480709","-5.0284154266119","-5.0147808891535","7.3445207809288"
"12.785714249825","-0.77494698554277","-4.7052918577194","-4.9680785930157","6.8863719913394"
"12.795703249983","0.28988419443369","-4.2363235276937","-3.9456134140491","5.796407084617"
"12.805691249901","0.8934962131083","-3.3650813788176","-2.8652701556683","4.5090887365261"
"12.815680249827","1.1391128920019","-2.4561287820339","-2.1144631075859","3.435273061636"
"12.825669249985","1.0601390817761","-1.4454229384661","-1.5593804937601","2.3758808615064"
"12.835657249903","0.8061315022409","-0.61284199476242","-1.4290209138393","1.7514348636589"
"12.845646249829","0.6096438601613","-0.29337468981743","-1.5081659013033","1.6529666453718"
"12.85563424998","0.35694240242243","0.12532571196556","-1.485279314518","1.5326999232928"
"12.865623249905","0.18692072018981","0.23790390908718","-1.391625046134","1.4241340859002"
"12.875612249831","0.22458570599556","0.43456682145596","-1.2578506922722","1.3496204746882"
"12.885600249982","0.28002198815346","0.81211627364159","-1.2616192227602","1.5263119664737"
"12.895589249907","0.40253080397844","1.2772985315323","-1.2146614763886","1.8080168940108"
"12.905577249825","0.59119764894247","1.9095620530844","-1.1210866570473","2.2918937993075"
"12.915566249983","0.80092894211411","2.6043404960632","-1.0432999777794","2.9176277064398"
"12.925554249901","0.97948741301894","3.2357959324121","-0.96154420852661","3.5148738488641"
