Time (s),Linear Acceleration x (m/s^2),Linear Acceleration y (m/s^2),Linear Acceleration z (m/s^2),Absolute acceleration (m/s^2)
0.00186083349399269,-3.56769792616367,-9.5770328950882,1.46867804601789,10.3249718047464
0.011848833411932,-4.32199810087681,-9.17950058341026,-0.476170345544815,10.1572455293149
0.0218368333298713,-4.45871740490198,-8.88929216086865,-2.20613224625587,10.1865939109217
0.0318248334806412,-4.16135052859783,-8.04473728895187,-3.12699269771576,9.5818954075737
0.0418128333985806,-3.28692340135574,-6.3440576595068,-3.1321639752388,7.80137066170494
0.0518008335493505,-1.57751534074545,-3.80747937619686,-2.31672531366348,4.72786104167845
0.0617898334749043,0.50323944568634,-1.04540029764175,-1.59093499302864,1.96905710278986
0.0717778333928436,1.73184762775898,1.2406066685915,-1.7504353415966,2.75724953477891
0.0817658335436136,1.91702149227262,3.18626826167107,-1.87873494744301,4.16616392379263
0.0917538334615529,1.97142267107964,5.06268946588039,-1.7311102938652,5.70211143573231
0.101741833379492,2.51793209731579,6.79632575690746,-1.40604018688202,7.38288391130621
0.111729833530262,2.85329593509436,8.64937856376171,-1.10244807243347,9.17433588794845
0.121718833455816,3.23608653903008,10.3974568927288,-0.412634500265122,10.8972305268382
0.131706833373755,3.64836962163448,11.6135736680031,0.645371224880219,12.1902501309901
0.141694833524525,3.90665136963129,12.4611205601692,1.83496502995491,13.1874389932265
0.151682833442464,4.06691858053207,12.7119649422169,2.45547272443771,13.570675212873
0.161670833360404,4.17608872801065,11.9519894599915,1.71786050319672,12.7765728512934
0.171658833511174,4.04300726920366,10.6909812712669,0.247143094539642,11.4325879848175
0.181647833436728,3.55423792809248,9.52641822695732,-1.19083458423615,10.2373501694242
0.191635833354667,2.67538475096226,8.54188569009304,-2.24295099377632,9.22780168126623
0.201623833505437,1.6177140712738,7.55552122056484,-2.41680625677109,8.09591577362134
0.211611833423376,1.29237060695887,6.96730185091496,-1.62567680954933,7.2702367194336
0.221599833341315,1.10806943938136,6.56548879265785,-0.571996817998588,6.68286176191063
0.231587833492085,1.15769139647484,6.4162093770504,0.697588103190065,6.55702838954764
0.241576833417639,1.55649138450623,6.44048409283161,1.63375649213791,6.82434326918436
0.251564833335578,2.06985192194581,6.51417070448399,1.84145997092128,7.07881923561024
0.261552833486348,2.63629962265492,6.92139711499214,1.5757462656498,7.57223811151903
0.271540833404288,2.87393982231617,7.37642860651016,0.910197688266635,7.96866920639589
0.281528833322227,2.85049424171448,7.92224747657776,0.222264361381531,8.42239419337105
0.291517833480611,2.85688875675201,8.57195031881333,-0.183978108912706,9.03736651803052
0.301505833398551,2.70405598819256,9.05178336024284,-0.0244939863681793,9.44707895295776
0.311493833549321,2.32068987205625,9.1888479423523,0.327593619078398,9.48302934558347
0.32148183346726,1.34657283425331,8.74691538333893,-0.266229283511639,8.85396324549856
0.331469833385199,-1.05830437168479,6.80733314037323,-3.08769706964493,7.54941493236692
0.341457833535969,-3.86587668836117,3.53728363394737,-6.21499733090401,8.12918014929859
0.351446833461523,-5.26820330858231,-1.38616140782833,-9.43753821015358,10.8969049283372
0.361434833379462,-4.95123042583466,-10.6259578943253,-9.9760749578476,15.393106751604
0.371422833530232,-5.1799267244339,-22.361389875412,-2.83369606822729,23.1277588935411
0.381410833448172,-4.59051452279091,-27.2862914586067,2.39391148388386,27.7731045679207
0.391398833366111,1.61982783973217,-18.2605808329582,1.64255245864391,18.4057228373886
0.401386833516881,2.09140271231532,-8.45254608213902,3.54671811640263,9.40205881565214
0.411375833442435,-2.53009781420231,-5.63199894011021,3.2166232046485,6.96185836192586
0.421363833360374,-4.97592438697815,-7.61536571860314,-1.18339692592621,9.1735514833292
0.431354958331212,-3.98086627721787,-13.3616198372841,-2.9192133513093,14.2443668719833
0.441342958481982,-0.212445424497128,-17.6015177679062,-0.860021634399891,17.6237963561754
0.451330958399922,1.97224537432194,-17.9665009689331,0.661420662403107,18.0865249889486
0.461319958325475,1.91785647466779,-16.0981050682068,1.09805739820004,16.2490889065877
0.471307958476245,0.59049437507987,-13.6697189855576,0.544169370532036,13.6932837937048
0.481295958394185,-1.28606774702668,-11.8107429492474,-1.27437843203545,11.9487095391584
0.491283958544955,-2.39304478034377,-10.3186832034588,-2.99346129566431,11.0073928294902
0.501271958462894,-3.08707960367203,-8.7193551170826,-3.49687031060457,9.88864581762286
0.511259958380833,-2.91539190351963,-6.77795439004898,-3.03591763615608,7.97853191747803
0.521248958539218,-2.40779058113694,-4.3531158131361,-2.13380818203092,5.4129668503409
0.531236958457157,-1.9971586060524,-1.57017737746239,-1.10933638483286,2.77213396305768
0.541224958375096,-1.91132425770164,0.975533671975136,-0.709548948258162,2.26015178101168
0.551212958525866,-1.92855000883341,3.55862772524357,-0.912514062747359,4.1491949024064
0.561200958443806,-1.65230400636792,5.54868196427822,-1.6438885474205,6.01833445618522
0.571189958369359,-1.34801753506064,6.7674486976862,-2.47352424860001,7.3303366470482
0.581177958520129,-1.22350867912173,7.59353163063526,-2.82869114398956,8.19513207345857
0.591165958438069,-0.579689597636461,8.37324438929558,-2.4731289768219,8.75006448938943
0.601153958356008,0.464937551915646,9.1639352953434,-1.27965028166771,9.2645227544539
0.611141958506778,1.86678046122193,10.2466221177578,1.30600952982903,10.4968469078351
0.621129958424717,3.38429883778095,10.9500246191025,3.46331167817116,11.9729296983868
0.631118958350271,3.98056806921959,10.8936223769188,3.2800529229641,12.0529945582847
0.641106958501041,3.58729603886604,10.3442390441895,2.94339948177338,11.3373530765828
0.65109495841898,2.20833825454116,9.23307394266129,2.18074246644974,9.74074175728409
0.66108295833692,1.33040922984481,8.45904877066612,1.40746003702283,8.67792824233876
0.67107095848769,0.618933477848768,8.00997149884701,1.12025752186775,8.11157808183122
0.681059958413243,-0.123789502233267,7.74061424732208,1.07421771526337,7.81577740640651
0.691047958331183,-0.521629085093737,7.67192408144474,1.15936589285731,7.77654455959639
0.701035958481953,-0.647770045101643,7.76755412399769,1.46048492744565,7.9301651511088
0.711023958399892,-0.472688036262989,7.93535225629807,1.67796772822738,8.12458153433969
0.721011958550662,0.381754184961319,8.09847320079803,1.69133080869913,8.28200485065267
0.730999958468601,1.60249318420887,8.08744652152062,1.2337453995645,8.33648027376292
0.740988958394155,2.75466422438622,8.20637537956238,0.809816125184298,8.69416896638255
0.750976958544925,3.6211584341526,8.54298730552197,0.827680099904537,9.3156038373968
0.760964958462864,4.36465821683407,8.90321438133717,1.09243588507175,9.97551421395502
0.770952958380804,5.207278829813,9.21055806934834,1.50470054894686,10.6871070221205
0.780940958531573,5.67823228955269,9.87157702803612,1.88564781814814,11.5432241011191
0.790929958457127,5.33435870647431,10.4367583680153,1.93838911861181,11.8801793091194
0.800917958375067,3.54654503881931,9.89351578116417,1.13044687986374,10.570598203163
0.810905958525837,0.917883049249649,7.63620694935322,-0.921848338544369,7.74622296507964
0.820893958443776,-1.87333007365465,3.63387261986733,-4.28429116129875,5.92195462132757
0.830881958361715,-2.95515589356422,-1.1721714413166,-8.70707713365555,9.26931089426463
0.840869958512485,-1.17981367908418,-8.15631502747536,-11.335607560873,14.0147577188796
0.850858958438039,-2.25245213449001,-21.7324329543114,-6.7252569437027,22.8604738290926
0.860846958355978,-2.07091494575143,-31.6566594815254,5.17440285980702,32.1435409250034
0.870834958506748,3.15205912649632,-26.1145445251465,8.63777827262878,27.6860276309167
0.880822958424687,3.07992319643498,-10.833042883873,2.25650279313326,11.4861895280893
0.890810958342627,-3.45313109099865,-1.08601564228535,-0.962275695204735,3.74559992798106
0.900799958501011,-7.69102342665196,2.43191078424454,-1.1450380218029,8.1472169164205
0.91078795841895,-8.8897102367878,-0.116278899908066,-1.88308819949627,9.08771093530685
0.92077595833689,-8.39831257224083,-7.64142500460148,-1.73479988694191,11.4861900040762
0.93076395848766,-6.57575065612793,-15.2409430146217,0.251841332316399,16.600911563019
0.940751958405599,-3.12125014722347,-21.6492481255531,-0.696092019975185,21.8841653024186
0.950739958323538,0.594102107137442,-25.4982456564903,-4.86465947449207,25.9649456127911
0.960728958481923,2.99697459518909,-25.1391541099548,-6.22864356279373,26.0721101317212
0.970716958399862,2.40728391990066,-19.4525755047798,-3.39639468044043,19.8930441729137
0.980704958550632,-0.86497758820653,-13.54036921978,-1.84859488964081,13.6933227487732
0.990692958468571,-3.82601621925831,-10.402046957016,-2.06377914994955,11.27387091401
1.00068095838651,-5.18894663929939,-7.97350533843041,-2.13770228147507,9.75047309886543
1.0106699585449,-5.15631040513516,-5.26525923550129,-1.25271771401167,7.47527882303632
1.02065795846283,-4.43719117283821,-2.18969046056271,-0.282574005424976,4.95613336038636
1.03064595838077,-3.48901077568531,0.858415111899376,0.56794502645731,3.6376687933707
1.04063395853154,-2.00542335301638,3.77388127505779,1.15097411513329,4.42590602213401
1.05062195844948,-0.205513257980347,6.32492907822132,1.35387659132481,6.47147165398046
1.06060995836742,1.0656145606935,8.29196165978909,1.31008167698979,8.46217918504203
1.07059895852581,2.04542503237724,9.82600967645645,0.8265904712677,10.0706246843025
1.08058695844375,2.90498269021511,10.5788106250763,-0.188571535348892,10.9720425580482
1.09057495836169,3.81662880688906,10.5416925001144,-1.50063878059387,11.3113152624426
1.10056295851246,4.96890305042267,10.7162786650658,-2.03804365351796,11.9867530167885
1.11055095843039,5.37463900566101,11.0671455180645,-2.01305236145854,12.4667892486061
1.12053995835595,4.99627679049969,11.2996202874184,-1.34613429307938,12.4280440111116
1.13052795850672,4.79697035193443,11.4999763011932,-0.771689720973373,12.4842254269458
1.14051595842466,3.91413785219193,11.0807215833664,-1.23280472874641,11.81620385036
1.1505039583426,2.42123566880822,9.69970514059067,-2.25732710435987,10.2490091050007
1.16049195849337,0.838758673220873,8.32030603766441,-3.13696220040321,8.93149150584922
1.17047995841131,0.00330119177699089,7.37575442254543,-3.30637942671776,8.08293938570543
1.18046895833686,0.150923945009708,6.77333918273449,-2.71112936496735,7.29733678509714
1.19045695848763,0.752184505909681,6.64654406547547,-1.65808924153447,6.89141418564652
1.20044495840557,1.43794756561518,6.82492331922054,-0.664058779925108,7.00630042018572
1.21043295832351,2.10138756394386,7.01806269943714,0.371180226355791,7.33531243421617
1.22042095847428,2.33850078329444,7.38268980503082,1.24106801390648,7.84301883753421
1.23040995839983,2.05215327724814,7.87978733539581,1.66041979551315,8.31019707478207
1.2403979585506,1.74769226655364,8.51767237007618,2.0225657813251,8.9272584370745
1.25038595846854,1.82822216704488,8.7951730388403,2.50036413788795,9.32466009553451
1.26037395838648,2.18873736441135,8.66805047750473,3.16079194307327,9.48241931356852
1.27036195853725,2.37630347102881,8.45550769686699,4.00908727884293,9.6548024012706
1.28034995845519,2.37220559611917,8.54945549547672,5.44993827939034,10.4126065856999
1.29033895838074,2.17719656869769,9.0629591435194,6.0633533012867,11.1194274399393
1.30032695853151,1.61593052431941,9.62534025192261,4.54312254756689,10.7656104753479
1.31031495844945,0.899632719755173,9.47234083771706,2.78166900515556,9.91323672826285
1.32030295836739,-0.114283976107836,8.13475166559219,0.995108103454113,8.19618726150214
1.33029095851816,-1.28078084081411,5.79735702931881,-3.03662514925003,6.6686460683295
1.34027995844372,-2.0520464193821,1.97117416441441,-7.33688271760941,7.86932462830892
1.35026795836166,-1.78009446591139,-4.72404270887375,-8.94415249228478,10.270500456554
1.36025595851243,-2.44277286440134,-17.074280179739,-2.94250953555107,17.4973296616967
1.37024395843036,-4.36417055904865,-30.5946250247955,7.13507425546646,31.7172878680907
1.3802319583483,-2.2086151202023,-32.2991047596932,2.4981693854928,32.4707714615072
1.39022095850669,1.87249348327518,-16.7718376278877,-5.7048961776495,17.8142249244501
1.40020895842463,-3.29017533034086,-6.584148427248,-5.19053240418434,9.00654711059147
1.41019695834257,-4.35488371878862,-6.11463104367256,-2.34470774888992,7.86456479610403
1.42018495849334,-1.94112649261951,-11.1760966873169,-0.696331901997328,11.3647695683786
1.43017295841128,-0.462199593186379,-18.490079369545,-2.48617674618959,18.6622007911529
1.44015762512572,0.846270006448031,-23.7231713175774,-4.33325106739998,24.130522064391
1.45014662505128,1.58528819069266,-22.5118293786049,-4.54574911683798,23.0208478482484
1.46013462520204,0.393363685458899,-15.7001435709,-2.84821031928062,15.9612513656908
1.47012262511998,-2.02767537072301,-11.1728643465042,-1.89850818425417,11.5129795639574
1.48011062503792,-4.14869072198868,-9.73447794735432,-1.90538655638695,10.7518460528182
1.49009862518869,-4.9498130607605,-9.05200730860233,-1.84977705046535,10.4814674920974
1.50008762511425,-4.48133209615946,-8.0482397711277,-1.76657818838954,9.37962148838237
1.51007562503219,-3.13972120910883,-6.21054526090622,-1.28010768011212,7.07583192150397
1.52006362518296,-1.71579702079296,-3.60895412564278,-1.03019388243556,4.12671888223122
1.5300516251009,-0.443950725495815,-0.536342287659645,-1.06279342532158,1.27054522198425
1.54003962501884,0.177138182222843,2.25568389058113,-1.34439883947372,2.63189969212482
1.55002862517722,0.623473840802908,4.56863365709782,-1.69569005414844,4.91289099031013
1.56001662509516,1.55171786382794,6.34779929280281,-1.40543909311295,6.68413369368692
1.5700046250131,2.38890085861087,7.72382806062698,-0.434265543669462,8.09647786292404
1.57999262516387,2.99862994194031,9.39305200874806,0.53445429481566,9.87455563359657
1.58998062508181,3.58573600172997,11.1382090687752,0.760878219231963,11.7258747903237
1.59996862499975,3.69952223360539,12.4613146877289,0.766992067918181,13.0214862951891
1.60995762515813,3.27997573971748,12.9627648854256,0.829105943441391,13.3969746955575
1.61994562507607,2.97487825959921,12.3437575864792,0.682854216098785,12.7155236578618
1.62993362499401,3.08992749005556,11.3035180413723,0.515239138193429,11.7295627955588
1.63992162514478,2.7291496065259,10.006719045639,-0.0773469686508179,10.3724956585537
1.64990962506272,2.3288995090127,8.92909415781498,-0.954139294624329,9.27700798726353
1.65989862498827,2.12899051487446,8.0499845802784,-1.79924555897713,8.51892815656079
1.66988662513904,1.85205541804433,7.39276865065098,-2.45083588242531,8.00560641776366
1.67987462505698,1.63269419923425,7.1654879629612,-2.69056938529015,7.82617861491901
1.68986262520775,1.61151880010963,7.09062547624111,-2.47260389685631,7.68034716130562
1.69985062512569,1.92874647527933,7.14407545924187,-1.66158689975739,7.58411156027453
1.70983962505125,2.33665013954043,7.18106377601624,-0.705660842210054,7.58456116423722
1.71982762520202,2.6686893966794,7.26059701859951,0.174092659950256,7.73747248245147
1.72981562511995,3.07586990654469,7.51968480527401,0.854414885491133,8.16925088666059
1.73980362503789,3.19925668179989,8.00538962066174,1.12035926342011,8.69348670981736
1.74979162518866,3.09253154754639,8.56394314169884,1.17428711012006,9.18062218609471
1.75978062511422,3.05705707490444,8.9977796459198,1.43965451404452,9.61136003048272
1.76976862503216,3.14536435693502,9.10910244584084,2.06191301107407,9.85497587881053
1.77975662518293,3.26623156696558,9.01441146612167,3.13226571679115,10.0865738112688
1.78974462510087,3.16354656636715,8.77493407130242,3.89755982637405,10.1093257655218
1.79973262501881,2.35211660966277,8.03307150900364,3.51545100778341,9.07860596139864
1.80972062516958,1.01166303277016,6.26136282742024,1.18540690630674,6.45238840135909
1.81970962509513,-1.06972617655993,3.23739046812058,-2.67676761746407,4.33475443523618
1.82969762501307,-2.93571448624134,-0.535274586081505,-6.87279505848885,7.49267978384374
1.83968562516384,-4.49798438161612,-7.91035950243473,-12.2228547084332,15.2382357305066
1.84967362508178,-7.11661810398102,-22.9591577482224,-7.73741231203079,25.2514697994401
1.85966162499972,-7.21261418223381,-33.552740778923,3.65170428872109,34.5129419396787
1.8696506251581,0.0903210631012917,-23.2037584733963,4.09956533968449,23.5632977564791
1.87963862507604,1.87728469178081,-7.79072839379311,4.38488987535238,9.13492780151089
1.88962662499398,-2.88967292547226,-2.76835723400116,4.33643779993057,5.90073759659932
1.89961462514475,-6.49595896661282,-4.74641006290913,0.589424773156643,8.06680314278297
1.90960262506269,-6.4673350918293,-13.4182770180702,-2.91888824611902,15.1788171448572
1.91959162498824,-2.73605312168598,-21.9320545578003,-4.02877222269774,22.4662415511228
1.92957962513901,2.17638351336122,-25.4524993801117,-3.44258505284786,25.7763023286489
1.93956762505695,2.62255925059319,-20.387517220974,-2.04915087819099,20.6573883823675
1.94955562520772,-0.760110260546208,-13.2639736747742,-1.39106692939997,13.3583618926633
1.95954362512566,-3.45775097608566,-9.70018870532513,-1.56581564694643,10.4164044358771
1.9695316250436,-4.29148557543755,-7.70444746434689,-1.80945976763964,9.00274979246764
1.97952062520199,-3.45234668701887,-6.13486825704575,-1.57733656212688,7.2141040198281
1.98950862511992,-1.83758926033974,-4.63326760947704,-1.2050607137382,5.12796980827113
1.99949662503786,-0.344964088797569,-2.70263043701649,-0.952045845240355,2.88610512509286
2.00948462518863,0.597801494300365,-0.264588262438774,-0.358012150526047,0.745349766976823
2.01947262510657,1.24025145024061,2.10274002492428,0.438823009729385,2.48038402391857
2.02946162503213,1.21350716292858,3.97089034259319,-0.480824583023787,4.17992368674583
2.0394496251829,0.957471915185452,5.50410805463791,-1.54356436014175,5.79608047557991
2.04943762510084,0.932837303280831,6.72132118284702,-1.88991716265678,7.044013824453
2.05942562501878,1.3078809311986,7.64465383708477,-1.90656184673309,7.98663025903078
2.06941362516955,1.82730049967766,8.41434797644615,-1.84790374875069,8.80653321401177
2.0794026250951,2.16464391231537,9.33420563042164,-1.53355158805847,9.70385791792912
2.08939062501304,2.17797322511673,10.1109749007225,-0.558533055782318,10.3579602232663
2.09937862516381,2.24322025805712,10.8842785263062,0.629805863723159,11.1308675129276
2.10936662508175,2.46005898803473,11.4894805490971,1.21884157776833,11.812943253245
2.11935462499969,2.82168179422617,11.4067892253399,1.32407625675201,11.8249696199564
2.12934362515807,3.0026326534152,10.6260982275009,0.746315217018128,11.0673733466892
2.13933162507601,2.78789336621761,9.36940820753575,-0.604430190324783,9.79405408581219
2.14931962499395,2.59700019389391,8.32970894515514,-1.87176974415779,8.92367542513886
2.15930762514472,2.33331240266562,7.79982139885426,-2.82652650475502,8.61805156079613
2.16929562506266,2.29162467867136,7.674399792552,-2.99667112469673,8.55149072813676
2.17928362521343,2.42291542768478,7.64436030685902,-2.20094576597214,8.31570357429516
2.18927262513898,2.47897706955671,7.60992313027382,-1.12664165809751,8.08242406619605
2.19926062505692,2.56507907420397,7.62442130148411,-0.262088577747345,8.04860989625099
2.20924862520769,2.67509706795216,7.7270346736908,0.468695265054703,8.19041417895767
2.21923662512563,2.79693140745163,8.01043459832668,1.3214416475594,8.58697244551088
2.22922462504357,2.80573848366737,8.48993610262871,2.19466249421239,9.20693906404039
2.23921362520196,2.79402826488018,9.07077394723892,3.01818653941155,9.95966786261183
2.24920162511989,2.81538083463907,9.64338475942612,3.91639019966126,10.7823629626528
2.25918962503783,2.36423569500446,10.0102987110615,4.35924895763397,11.1713357384355
2.2691776251886,1.42541742101312,9.85099833726883,3.60724790811539,10.5870779979938
2.27916562510654,-0.0494851322472096,8.32709874808788,1.649482870996,8.48904093996663
2.2891546250321,-1.82644402876496,5.56155519425869,-1.35650169879198,6.00890096671784
2.29914262518287,-3.3438711887598,2.42124312400818,-5.75647972941399,7.08385147132045
2.30913062510081,-3.61083342075348,-2.98972170889378,-10.4895049309731,11.4893980515068
2.31911862501875,-3.57068877696991,-14.8864543962479,-9.8618811750412,18.2102455541977
2.32910662516952,-4.90430067300797,-29.9927407121658,1.99296776041389,30.4563389298932
2.33909562509507,-3.1939936029911,-32.5968964362145,4.76831431746483,33.0982790162778
2.34908362501301,0.655803534686565,-16.7985605728626,-0.960588773488999,16.8387780550726
2.35907162516378,-4.27606939136982,-5.81702589333057,-1.35144473433495,7.34499574904233
2.36905962508172,-7.85957058727741,-4.51038544893265,-0.750052757263184,9.09279967078444
2.37904762499966,-7.90779608309269,-10.3256612706184,-2.5854197832942,13.2603512405658
2.38903662515804,-5.4434209728241,-18.7629081130028,-4.15374710172415,19.9732613193101
2.39902462507598,-0.225635865926743,-23.1715637040138,-1.86543808668852,23.2476264441863
2.40901262499392,2.77011490702629,-18.952056183815,-0.232016640007496,19.1548375590567
2.41900062514469,0.00352104708552361,-12.0709335207939,-0.0527816462516785,12.0710494309062
2.42898862506263,-3.24229335844517,-8.98879539906979,-0.375450886487961,9.56304722966066
2.4389763334766,-4.81505403578281,-7.96674069464207,-0.867604888379574,9.34914118545198
2.44896533340216,-4.71777390897274,-7.5756479215622,-1.43682782381773,9.03948595236202
2.45895333355293,-3.49635692507029,-6.98461136341095,-1.96569459244609,8.05439401048571
2.46894133347087,-1.33435800075531,-5.67246751964092,-2.11835837647319,6.20039041083181
2.47892933338881,1.05263037979603,-3.69742191374302,-1.14632557868958,4.01161088056339
2.48891733353958,2.70679306983948,-1.86793104708195,-0.730192104578018,3.36883891410257
2.49890633346513,3.55143477290869,0.33735335290432,-1.11531209304929,3.73770214113468
2.50889433338307,3.54369627535343,2.65712857425213,-1.09260150745511,4.56200543688345
2.51888233353384,3.03764987379313,4.74580019831658,-1.03916723884642,5.72972990885161
2.52887033345178,2.6869780254364,6.54750977396965,-1.04975413441658,7.15483884459538
2.53885833336972,2.47548335820437,8.18968567192555,-0.746641491651535,8.58815712354781
2.5488473335281,2.14559309899807,9.57576989650726,-0.442031925134361,9.82315280753389
2.55883533344604,1.81324613213539,10.476456284523,-0.237916078604758,10.6348766743054
2.56882333336398,2.11606553703547,11.1569295144081,0.0598648902028799,11.3559849133212
2.57881133351475,2.41816076427698,11.5856649076939,0.280297940187156,11.8386527852848
2.58879933343269,2.42107063114643,11.5401326394081,-0.0195285673812032,11.791379295955
2.59878833335824,2.64967366665602,11.1359099435806,-0.285682092905045,11.450365717719
2.60877633350901,2.90635473936796,10.3779540896416,-0.341107923164964,10.7826334247716
2.61876433342695,2.75066385179758,9.38656569242477,-0.460512634925544,9.79213148455012
2.62875233334489,2.40424409866333,8.3961444246769,-1.01258104562759,8.79209595375043
2.63874033349566,1.89051387101412,7.57271554291248,-1.85602085351944,8.02277238858639
2.64872933342122,1.4737117677927,7.04886583149433,-2.30743993520737,7.56191873399396
2.65871733333915,1.44741771608591,6.81248921513557,-1.88910907745361,7.21621510611314
2.66870533348992,1.72621734380722,6.8426052993536,-0.858476507663727,7.10901227422019
2.67869333340786,2.06686297148466,7.07380362153053,0.175885416269302,7.37167253060858
2.6886813333258,2.46756681293249,7.53895722806454,0.823053929060698,7.97509748109793
2.69866933347657,2.8235169428587,8.1304124468565,1.21939019277692,8.69268467878881
2.70865833340213,3.12941929221153,8.80588221430779,1.54500979185104,9.47226910173289
2.7186463335529,3.4284043854475,9.36762071371079,1.64984218239784,10.1107988652192
2.72863433347084,3.81006676912308,9.67260154187679,2.02831505611539,10.5919729672973
2.73862233338878,4.09654963821173,9.95865025520325,3.5334034216404,11.3331978533798
2.74861033353955,3.69275261968374,10.2225304198265,4.75158309459686,11.8622970793737
2.7585993334651,1.94801729008555,9.52458921790123,3.02871240466833,10.1826160667298
2.76858733338304,-0.681207640171051,6.85475522875786,-0.50378996104002,6.90691808407015
2.77857533353381,-3.374741563797,3.38915845870972,-5.03775518417359,6.94652812391417
2.78856333345175,-4.9803097987175,-0.705946040153504,-9.76520331144333,10.9845819773278
2.79855133336969,-4.549591614604,-8.74162131428719,-11.1277051305771,14.8640690436753
2.80854033352807,-6.84050030171871,-23.2883840560913,-4.18705810457468,24.6307273926879
2.81852833344601,-8.33608474910259,-33.0990974164009,5.60740262746811,34.5902229387316
2.82851633336395,-0.4884880900383,-24.2919674062729,3.83238091349602,24.5972649810434
2.83850433351472,1.38525991335511,-9.5336752063036,1.19892596125603,9.7081064800202
2.84849233343266,-4.01595775723457,-4.57508489012718,1.12660321265459,6.19100583576904
2.85848133335821,-5.47219687521458,-8.15780606746674,-0.416222059428692,9.83198755482636
2.86846933350898,-4.53628276705742,-17.6744091582298,-3.56116921752691,18.5915175989235
2.87845733342692,-2.28197004854679,-25.1226135063171,-4.89839586228132,25.6972251170018
2.88844533334486,-0.16169553950429,-24.0736206793785,-4.20311455875635,24.438320933651
2.89843333349563,-1.39736788898706,-15.8958358454704,-2.50700102001429,16.1528724491239
2.90842233342119,-4.24806415200234,-10.056474173069,-1.44095771223307,11.011588484936
2.91841033333913,-5.46785941064358,-7.87041658759117,-1.38080711245537,9.68233298738486
2.9283983334899,-5.39293377399445,-7.47395548582077,-1.79683416724205,9.39001375501063
2.93838633340783,-4.76065768092871,-7.503849375844,-1.99633634135127,9.10807201322759
2.94837433332577,-3.64102844238281,-6.83945365011692,-1.63931573241949,7.91975822995225
2.95836333348416,-2.29815923452377,-4.95870550632477,-0.904920795410872,5.53978138662976
2.9683513334021,-0.444740684330463,-2.28620577156544,0.0690029919147492,2.33008423005072
2.97833933355287,1.41438971847296,0.562072960138321,1.29869247034192,2.00075646213213
2.98832733347081,2.53482265681028,3.06814690411091,1.69443801909685,4.32550245951207
2.99831533338875,2.78623860418797,5.3505005300045,0.542650994807482,6.05685162301433
3.00830433354713,2.82394963681698,7.52646055877209,-0.194674712866545,8.04115652986934
3.01829233346507,2.67678369730711,8.90555853009224,-0.212953182086349,9.30158549672197
3.02828033338301,2.68799573332071,9.65680353462696,-0.18792936488986,10.025691647708
3.03826833353378,3.05477315247059,10.4115217852592,-0.341570803374052,10.8557862687002
3.04825633345172,3.24866448462009,11.1139548182488,-0.444834970682859,11.5875662149931
3.05824533337727,3.43377973079681,11.5468639540672,-0.504776020869613,12.0571849635233
3.06823333352804,3.98950144529343,11.9382952809334,0.0623313919454813,12.5874104246734
3.07822133344598,5.04269842028618,11.7878990471363,1.28961393713951,12.8859021962103
3.08820933336392,5.45670350790024,10.4207030832767,0.943733735829592,11.8007329978729
3.09819733351469,4.61947841316462,9.01583409368992,-0.915235283821821,10.1716518245262
3.10818533343263,3.59314150035381,8.3905281740427,-2.05704228043556,9.35644440075763
3.11817433335818,2.85893586695194,7.93138667464256,-2.52851263403893,8.80191939377636
3.12816233350895,2.77931403905153,7.47298660218716,-2.79281730651856,8.4480733775061
3.13815033342689,2.70139404326677,6.99781963884831,-2.83186735153198,8.01788514332308
3.14813833334483,2.70082306265831,6.64829004406929,-2.45403430938721,7.58396269225445
3.15812733350322,2.63090615093708,6.47267359972,-1.71327628612518,7.1939200952019
3.16811533342116,2.61468919068575,6.48811083376408,-1.17043481826782,7.09239729702936
3.1781033333391,2.9347561275959,6.94502395927906,-0.229673953056335,7.54313604862954
3.18809133348987,3.22183892101049,7.82987199425697,1.07936092615128,8.53534776610127
3.1980793334078,3.37938045233488,8.73181261003018,2.33941631108522,9.65078402902462
3.20806733332574,3.63454534202814,9.52389515340328,3.71807954192162,10.8507425652041
3.21805633348413,3.78744886189699,9.76759306848049,4.89707234501839,11.5642535766584
3.22804433340207,3.46602303206921,9.42333590805531,5.03248684287071,11.2311397070175
3.23803233355284,2.39855095714331,8.49038341462612,3.451516674757,9.47378617963785
3.24802033347078,0.669102149605751,6.7101465690136,1.22981212377548,6.85464824218115
3.25800833338872,-0.67800892084837,4.58916381597519,-0.502781023979187,4.66614502396566
3.2679973335471,-1.37472249984741,2.11639385819435,-3.21237607955933,4.08513708351561
3.27798533346504,-1.36067602604628,-2.99910649001598,-7.73239423155785,8.40452256458046
3.28797333338298,-2.31797106295824,-14.0291753983498,-8.2935211122036,16.4612649770587
3.29796133353375,-4.47906980842352,-27.5888427686691,1.26740855097771,27.9787890391663
3.30794933345169,-5.43927763581276,-31.232874341011,2.77062127590179,31.8238043460445
3.31793833337724,-2.87808520585299,-17.2355803012848,-1.63401800885797,17.5504591856583
3.32792633352801,-4.83904633104801,-6.40885884225369,-0.137499468773603,8.03173375790529
3.33791433344595,-6.58607976257801,-5.54247865319252,0.345730804949999,8.61481549713201
3.34790233336389,-6.15461079597473,-11.1139875626564,-1.46391592741013,12.7883933093776
3.35789033351466,-4.81321040868759,-19.1903465938568,-3.45180698901415,20.0836094445211
3.36787933344021,-0.392158866673708,-22.2957537102699,-1.78352853566408,22.3704134097529
3.37786733335815,1.57791923716664,-16.6569375014305,-0.721184176504612,16.7470445948538
3.38785533350892,-2.34728695571423,-10.2661623430252,-1.48709999129176,10.6355682354031
3.39784333342686,-5.61677746832371,-7.30546211957932,-1.56812734365463,9.34756595457847
3.4078313333448,-5.99964145481586,-6.90140373051167,-1.07231181532145,9.20732988803721
3.41782033350319,-4.71287715822458,-7.77324521899223,-0.614846420288086,9.1111244346481
3.42780833342113,-3.15269121050835,-8.44649362921715,-0.71281417965889,9.04382775996675
3.43779620854184,-0.730425700843334,-7.96587589144707,-0.624073472768068,8.02360069556075
3.44778420845978,1.45799503684044,-6.86287057936192,-0.595706144571304,7.04127885594675
3.45777220837772,2.63158735156059,-4.54543015122414,-1.36955107614398,5.42787779880114
3.4677612085361,2.43047003030777,-1.54931334257126,-1.83018054574728,3.41425207501224
3.47774920845404,1.60441165566444,1.09063377320766,-2.17823751926422,2.91690546271617
3.48773720837198,1.47807583719492,3.0692491042614,-2.46738818049431,4.20630510992152
3.49772520852275,1.84622589021921,4.80580257117748,-1.85496133804321,5.47221801068697
3.50771320844069,1.75478420823812,6.45214928805828,-0.937653654813767,6.75193990118829
3.51770220836625,1.8069972127676,8.28418252408505,-0.151475483626127,8.4803221543433
3.52769020851702,2.00564028471708,9.61409196317196,-0.0569167240709066,9.82123193603973
3.53767820843495,2.20612522959709,10.4625913667679,-0.214384653568268,10.6948009526272
3.54766620835289,2.49674120306969,11.2110817480087,-0.00315398812294006,11.4857337834063
3.55765420850366,3.20973226100206,12.1100677657127,0.345600777491927,12.5329789904426
3.56764320842922,3.79953973442316,12.4409476661682,0.358324391841888,13.0131501718679
3.57763120834716,4.38917734622955,12.0459635710716,0.210571026429534,12.822420063678
3.58761920849793,4.67832596093416,11.2968323349953,-0.0325420209020376,12.2272733503782
3.59760720841587,4.36021608710289,10.1283037090302,-1.09118757762015,11.0808262633315
3.60759520833381,3.65433816701174,8.76395650863648,-2.48990113019943,9.81635007333779
3.61758420849219,2.99548530936241,7.69681333959103,-3.3584500515461,8.9158877612856
3.62757220841013,2.62685344576836,7.13466319620609,-3.13246569156647,8.22290211894097
3.63756020832807,2.52132991433144,6.89952735900879,-1.85428671553731,7.57621023586539
3.64754820847884,2.52271541208029,6.80256415128708,-0.447259518653154,7.26904485883458
3.65753620839678,2.70499768227339,7.00166769146919,0.768553347587586,7.5452658780825
3.66752520832233,2.83602121353149,7.43492239773274,1.71189049601555,8.13951205258994
3.6775132084731,2.95002086877823,7.95674721837044,2.38149609088898,8.81385120445043
3.68750120839104,3.00269404917955,8.33983515322209,2.74022394061089,9.27781489255925
3.69748920854181,3.16512853056192,8.73301479756832,3.04981646776199,9.77675644355308
3.70747720845975,3.52743253737688,9.27736543178559,4.12525858998299,10.7484905030829
3.7174662083853,2.81778082430363,9.56244876980782,4.32468489646912,10.866610083313
3.72745420853607,1.06807857736945,8.77185960531235,2.57707171350718,9.20476025756808
3.73744220845401,-1.15562528282404,6.51555590987206,0.0657305976748467,6.61757199586385
3.74743020837195,-3.13836465507746,4.01126244306564,-2.09655191659927,5.50772993477208
3.75741820852272,-3.36278517723084,1.3987066090107,-3.09069084405899,4.77672212085272
3.76740720844828,-2.8837397557497,-4.23878812909126,-2.83508098125458,5.85840967776135
3.77739520836622,-4.45985848903656,-14.6000145041943,-0.588483663797379,15.2773385865297
3.78738320851699,-6.96218027472496,-26.365128121376,4.66044663727284,27.6642675285866
3.79737120843492,-5.61522035479546,-28.0057866668701,2.53335646748543,28.6752974083008
3.80736020836048,-2.21887625277042,-13.9185671281815,-4.2427817773819,14.7190733382671
3.81734820851125,-4.94129366755486,-6.1403237092495,-2.47732610821724,8.26178570345685
3.82733620842919,-6.1923276758194,-7.66148855566979,-1.54093282073736,9.97084765159931
3.83732420834713,-5.39205084443092,-14.5092341423035,-3.48083929181099,15.865318461365
3.8473122084979,-3.53955235362053,-22.1888268470764,-6.02270696640015,23.2625335446654
3.85730120842345,0.1303674736619,-24.0487980794907,-4.31511300444603,24.4332127438747
3.86728920834139,1.753174469769,-17.0389384388924,-1.5235873478651,17.1965218068186
3.87727720849216,-1.41957181334496,-11.1659926986694,-0.18559559494257,11.2573985807044
3.8872652084101,-5.27638005495072,-8.54610621035099,-0.299514266252518,10.048175289005
3.89725320832804,-7.29075461804867,-7.24616082787514,-1.26427356630564,10.3566566658594
3.90724220848642,-6.93840666532517,-6.35513871788979,-1.76898270964623,9.57384849494067
3.91723020840436,-5.43841692566872,-5.10774518609047,-1.83752844929695,7.68387599752924
3.9272182083223,-3.58324187189341,-3.21829813957214,-1.37921433091164,5.00991989938519
3.93720620847307,-1.55728748291731,-1.14897729098797,-0.630047865360975,2.03525267038343
3.94719420839101,0.503186528384686,0.536064544916153,-0.402361819446087,0.83812702641781
3.9571832085494,2.23670879870653,2.14415760755539,-0.648665692359209,3.16560346169458
3.96717120846733,3.55619616061449,3.62503396868706,-0.904086105376482,5.1579815909752
3.97715920838527,4.49466462492943,5.31398759186268,-0.628186184987426,6.98821093700466
3.98714720853604,4.75561738103628,7.0145654797554,0.0436740962415934,8.47478217839686
3.99713520845398,4.86286116331816,8.23669085383415,0.108874059095979,9.5656859908784
4.00712420837954,5.12915418148041,9.11401469171047,-0.225521260499954,10.4606092679657
4.01711220853031,5.3155587387085,9.79238350868225,-0.463618785515428,11.151721027001
4.02710020844825,5.50873612582684,10.3027004241943,-0.328716430664063,11.6875944585048
4.03708820836619,5.66637530565262,10.5357891511917,-0.0926258162409067,11.9632454494887
4.04707620851696,5.51538850307465,10.391131374836,-0.241799908876419,11.766630307139
4.05706520844251,4.95088193178177,9.88354627847672,-0.69469716668129,11.0760246972743
4.06705320836045,3.97424021244049,9.08791096687317,-1.1415671145916,9.98438212835976
4.07704120851122,3.02161593139172,8.36630783736706,-1.82151292562485,9.07982263068217
4.08702920842916,2.22525965809822,7.95553626000881,-2.41599451705813,8.60693715770769
4.0970172083471,1.73300508409739,7.89648815274239,-2.56508813738823,8.48159825271618
4.10700620850548,1.71649313181639,7.96123261749744,-2.10576829791069,8.41200532488917
4.11699420842342,1.93769154578447,8.02966784477234,-0.929111896008253,8.31224777898732
4.12698220834136,2.13382382333279,8.01867215573788,-0.0894189839065075,8.29821083155347
4.13697020849213,2.44280502408743,8.21687990248203,0.257210830450058,8.57616284411745
4.14695820841007,2.80791423261166,8.58024167060852,0.644343138188124,9.05097274017993
4.15694720833562,3.08176536172628,8.84173792541027,1.47873642638326,9.47946563394198
4.16693520848639,3.21847706437111,8.9096124047041,3.08191300392151,9.96182591594937
4.17692320840433,3.07776966691017,9.09681393742561,4.97909942507744,10.8173989951143
4.18691120832227,2.43759910181165,9.47461423516274,5.65613916993141,11.3005360313542
4.19689920847304,1.41787948295474,9.0356742811203,4.71942808628082,10.2920743003662
4.2068882083986,0.114578529596329,7.48437522411347,2.42652798369527,7.86873806848494
4.21687620854937,-1.4735806439817,5.44179135382175,-0.484950086027384,5.65859608372825
4.22686420846731,-2.23239983931184,2.59920897960663,-3.22124279737473,4.70275467379129
4.23685220838524,-1.2264922209084,-2.64432901918888,-4.49463188052178,5.35709574966473
4.24684020853601,-1.48890356495976,-11.7828903222084,-3.85953275173903,12.4879674580249
4.25682920846157,-5.25486347079277,-23.5667138600349,2.00789321690798,24.2288098640429
4.26681720837951,-6.73363366484642,-28.630802564621,5.34575960755348,29.8938425701416
4.27680520853028,-4.14878340035677,-16.8125061821938,0.909085328578949,17.3406806084426
4.28679320844822,-5.87593659102917,-6.18300604462624,-1.12507475048304,8.60360318493679
4.29678220837377,-8.49815787255764,-5.34848557949066,-1.4723455658555,10.1485361844075
4.30677020852454,-8.31115514516831,-10.081665147543,-0.52670929223299,13.0764175014705
4.31675820844248,-6.46808645904064,-16.6946029257774,-1.27654336363077,17.9492471221004
4.32674620836042,-3.47608082771301,-22.503128721714,-3.73682454586029,23.0746137101657
4.33673420851119,-0.139530645310879,-23.4961332893372,-4.46968736618757,23.917898183217
4.34672320843674,0.899577463567257,-17.4752892458439,-2.67627206593752,17.7019040221605
4.35671120835468,-1.44866141885519,-11.8728766322136,-1.24107006043196,12.0251434222276
4.36669920850545,-4.18161142319441,-9.08483883976937,-1.01097306132317,10.0519767891641
4.37668720842339,-5.66769911527634,-7.56525800406933,-1.30587884455919,9.5426024482898
4.38667520834133,-5.63603936612606,-6.41682450413704,-1.52701557040215,8.67596409661006
4.39666420849972,-4.57215075731278,-5.24733693480492,-1.38715514212847,7.09671098772502
4.40665220841765,-2.94366377592087,-3.60219708323479,-0.924396847486496,4.74294104789179
4.41664020833559,-1.07903757512569,-1.36867180109024,-0.327901328802109,1.77344406989985
4.42662820848636,0.454478052556515,0.973502933979034,0.00206055879592896,1.07436609618133
4.43661670852453,1.43822326183319,2.99723304212093,-0.12048202469945,3.3266211052561
4.44660570845008,2.19286345213652,4.6367157125473,-0.455971723794937,5.14933907716317
4.45659370836802,3.35130241513252,6.36128881931305,-0.5716718955338,7.21276868314335
4.46658170851879,4.57328365534544,7.80309174656868,-0.374509630948305,9.05226058293126
4.47656970843673,5.12102655172348,8.63676495015621,-0.275672829151154,10.0446312653296
4.48655870836228,5.24448934078217,9.39663342833519,-0.756643738746643,10.78767342755
4.49654670851305,5.60028188824654,10.3447056519985,-0.99763322353363,11.8055649717839
4.50653470843099,5.73744411885738,10.9367444229126,-0.76873110294342,12.3742309295468
4.51652270834893,5.5576398986578,10.9727983546257,-0.432036804333329,12.3075716847284
4.5265107084997,5.50077631115913,10.7144192504883,-0.0532926198095083,12.0440923279411
4.53649970842525,5.30174410700798,10.1398648238182,0.0707548908144236,11.4424803026299
4.54648770834319,4.4695742225647,9.31632542967796,-0.646428328379989,10.3532064031589
4.55647570849396,3.5047254601121,8.62828239440918,-1.84989399477839,9.49486521338489
4.5664637084119,2.75506358921528,7.9606461417675,-2.7594460773468,8.86435587219073
4.57645170832984,2.30375765115023,7.33987532258034,-2.95836952328682,8.24214894930741
4.58644070848823,2.40315680891275,7.0792368543148,-2.5054360127449,7.88466655615009
4.59642870840617,2.7237842014432,7.1386808180809,-1.65340781450272,7.81751377354248
4.6064167083241,2.91092726200819,7.38323710441589,-1.02441800281405,8.00219469328356
4.61640470847487,3.18323560327292,7.80651119828224,-0.338771156519651,8.43737944455149
4.62639270839281,3.38625823974609,8.45047149002552,0.572593343630433,9.12168166552376
4.6363817085512,3.42472063958645,9.28233205676079,1.6259937286377,10.0266771902135
4.64636970846914,3.17750650137663,10.1257087147236,2.62105300784111,10.9314428787618
4.65635770838708,2.54371978014708,10.3282761454582,3.1481409072876,11.0929973239378
4.66634570853785,1.6802959433198,9.25497410416603,3.1012146627903,9.90431585272937
4.67633370845579,0.93583634018898,7.51613145232201,1.82371834918857,7.79063349679405
4.68632270838134,0.229129284918308,5.52258408665657,0.178373845070601,5.53021269500594
4.69631070853211,-0.72622359931469,2.90691577970982,-1.66833824113011,3.42941869029499
4.70629870845005,-1.85827524751425,-1.33379140555859,-4.96660392522812,5.46802898302098
4.71628670836799,-2.90774374544621,-10.2441627788544,-8.97705945253372,13.9278656348764
4.72627570852637,-3.88715412139893,-24.1157463598251,-1.57596699804068,24.4778034478962
4.73626370844431,-2.99448309659958,-31.1516307878494,5.66437789678574,31.8037137252225
4.74625170836225,-1.49609841763973,-20.126471786499,0.25360909178853,20.1835946902291
4.75623970851302,-2.25503689616919,-6.02225380718708,-1.27779057472944,6.55633137311798
4.76622770843096,-5.02880894422531,-2.31159145832062,-0.057631034553051,5.53495219526285
4.77621670835652,-5.7915811496973,-4.98280480563641,-0.161790118217468,7.64178853325288
4.78620470850728,-6.17507137298584,-12.3262159395218,-3.23490890979767,14.1609230456167
4.79619270842522,-5.35709034204483,-20.7957581233978,-5.36740483045578,22.1352887370754
4.80618070834316,0.0393219405412674,-23.6061217546463,-2.63140024065971,23.7523640452216
4.81616870849393,2.64553471505642,-16.5175749635696,-0.930444037914276,16.7539506598713
4.82615770841949,-0.765320422053337,-10.1352572178841,-1.5151211643219,10.2764170002807
4.83614570833743,-4.30927777558565,-8.61507061064243,-1.31593547075987,9.72219125180715
4.8461337084882,-5.66093856453896,-8.74308545708656,-0.957039513587952,10.4596220472812
4.85612170840614,-5.39337231516838,-8.69112475991249,-1.09538697481155,10.2870786497905
4.86610970832408,-4.12851168841124,-7.61291515052319,-2.09944994285703,8.91116018894151
4.87609870848246,-2.06020942479372,-5.57753972768784,-3.18435037493706,6.74488692257378
4.8860867084004,0.0197814229130745,-3.23884993314743,-3.37489359140396,4.67765400039818
4.89607470855117,1.50042886555195,-0.806495345234871,-3.18862936735153,3.61511808448959
4.90606270846911,2.2961027687788,1.25507852733135,-2.80949005723,3.83934166443104
4.91605170839466,3.2682014939189,3.00014086246491,-2.14133106350899,4.92618360630559
4.92603970854543,3.65320409953594,4.3012615352869,-1.61593768715858,5.87009417271855
4.93602770846337,3.96076793521643,5.84708350539207,-0.671607754603028,7.09416134096974
4.94601570838131,4.42351892083883,7.76784531533718,0.557549554109573,8.95643913568963
4.95600370853208,4.87635302871466,9.52769175052643,1.14370368719101,10.7640042306661
4.96599270845763,5.44304265797138,10.7949704933167,1.11423481665552,12.1408245417978
4.97598070837557,5.60492223858833,11.4948962402344,1.136570084095,12.8389868926811
4.98596870852634,5.01773548722267,11.5715052902699,1.10531094230711,12.6609287329825
4.99595670844428,4.12148947477341,10.9998616075516,0.106061475276947,11.7471221970529
5.00594470836222,3.5259365272522,10.2611080098152,-0.678984528779984,10.8712274363858
5.01593370852061,2.96953975170851,9.41132748126984,-0.524494074583054,9.88262846265884
5.02592170843855,1.74551520198584,8.6253932851553,-0.523673125505447,8.81580774440677
5.03590970835649,0.478023620545864,8.15322301983833,-0.969386421069503,8.22455240279831
5.04589770850726,-0.135165114104748,7.9899921476841,-1.10888234853745,8.06770501388235
5.05588570842519,-0.322423072457314,7.79915890932083,-0.685445702075958,7.83585809857387
5.06587470835075,-0.228074447214603,7.61888749659062,0.108144253492355,7.62306761210607
5.07586270850152,0.268422866463661,7.62100886642933,0.892435966730118,7.67777760371766
5.08585070841946,1.61376135349274,7.71122321784496,1.99119327664375,8.12601008407012
5.0958387083374,3.54947654038668,8.00771154999733,3.22878336668015,9.33527021610336
5.10582770849578,5.07926456809044,8.39180345177651,3.0191127383709,10.2633491343177
5.11581570841372,5.72224369704723,8.59206357121468,1.57800212144852,10.4430704314147
5.12580370833166,6.454364798069,8.65571811497212,1.0844518044591,10.8515582636137
5.13579170848243,6.4719181394577,8.79464035749436,1.1841794295609,10.983337577572
5.14577970840037,4.67501058965921,8.41215234696865,0.70000994682312,9.64935464410379
5.15576870832592,1.73893854618073,6.77089329242706,-1.44976566553116,7.13937838539042
5.16575670847669,-1.03730307340622,4.55100371718407,-2.19953278630972,5.15999776918291
5.17574470839463,-2.03289444923401,2.94794335305691,-0.325776450634003,3.5957141363499
5.1857327085454,-2.59883008003235,-1.52666649162769,2.66509189724922,4.02334974645795
5.19572070846334,-4.24893100172281,-10.2707641017437,5.22736401557922,12.2828068633534
5.2057097083889,-8.14251852214336,-22.2698365116119,6.88010875582695,24.6897169410542
5.21569770853967,-9.68044441223145,-28.4822973203659,7.29216555118561,30.9536418388842
5.2256857084576,-5.42231837153435,-18.4447318732739,-2.70822242170572,19.4150492939027
5.23567370837554,-7.15109328746796,-6.65938805937767,-6.61542635321617,11.8004004324547
5.24566270853393,-8.41293528914452,-5.31110432982445,-2.16140660136938,10.1812075844694
5.25565070845187,-7.59982381939888,-11.4490797972679,-0.725201798379421,13.7609835381954
5.26563870836981,-7.21212184667587,-20.5279229021072,-2.74590860366821,21.9305798889555
5.27562670852058,-3.45562346667051,-25.3869403982163,-2.32198546886444,25.7260508598503
5.28561470843852,1.10040300875902,-20.3800070571899,-0.880338369905949,20.4286702963831
5.29560370836407,0.0104808416962624,-12.7534813427925,0.825678305625916,12.7801854788333
5.30559170851484,-3.13330622881651,-8.77875347256661,1.23333857953548,9.40240631473726
5.31557970843278,-5.00928684532642,-6.69890120387077,0.578501004874706,8.3846821913906
5.32556770835072,-4.76538632422686,-5.16317152798176,0.00164072871208191,7.02618315577388
5.33555570850149,-3.61686687022448,-3.56896794140339,-0.42375239610672,5.09890421727048
5.34554470842704,-2.38803912520409,-1.79237449586391,-0.791862688064575,3.08907489609394
5.35553270834498,-0.823935835361481,0.336369851231575,-0.53048513174057,1.03606438632364
5.36552070849575,0.614660186469555,2.4475181722641,-0.252200789898634,2.53609100523212
5.37550870841369,1.65508859664202,3.99681982040405,-0.484586681574583,4.35301173803478
5.38549770833924,2.4997981274128,5.00235789477825,-1.26567660570145,5.73362995453027
5.39548570849001,3.33727786839008,5.78937557995319,-2.13633637189865,7.01557027407621
5.40547370840795,4.16736877530813,6.17747750222683,-3.07233994245529,8.06023966901345
5.41546170832589,4.86385782122612,6.57879705548286,-3.69419951319695,8.97690334389521
5.42544970847666,5.50310408771038,7.2264124417305,-3.09588317155838,9.59633700898996
5.43543870840222,5.70800163388252,8.24109439194202,-1.53031340003014,10.1409456428686
5.44542620843276,5.56873382091522,9.29393702566624,-0.370960224866867,10.8409258503916
5.4554142083507,5.49987934827805,10.0741234087944,0.168618496656418,11.4788966150345
5.46540220850147,4.98099392294884,10.2557449436188,0.299775052070618,11.4052825432279
5.47539020841941,4.05342262208462,9.95684697389603,-0.250743883028626,10.7532278460789
5.48537920834497,2.71358607262373,9.6253186172247,-1.34821941018105,10.0909862468749
5.49536720849574,1.61372451603413,9.54057375133038,-2.47808975458145,9.9883723974422
5.50535520841368,0.928898326456547,9.72986683309078,-2.9488233590126,10.2092467838344
5.51534320833162,0.793934648931027,9.93731025695801,-2.52621467828751,10.2840764276921
5.52533220849,1.3478045502305,9.72091123759747,-1.58356282353401,9.94084320422316
5.53532020840794,2.15649610966444,9.10830371618271,-0.651911920309067,9.38278536518163
5.54530820832588,2.87013299256563,8.58830264210701,0.575966090708971,9.07349671323479
5.55529620847665,3.59305905461311,8.28441524326801,1.60192074179649,9.17102826055108
5.56528420839459,4.1199399626255,8.26545915484429,2.39348536804318,9.54046605481486
5.57527320855297,4.43014469325543,8.23655285954476,3.33835667967796,9.93033787602439
5.58526120847091,4.44656981438398,8.48035719394684,4.42236848115921,10.5473117065093
5.59524920838885,3.78957169353962,8.72012461066246,4.51636364221573,10.5261088439502
5.60523720853962,2.44751671046019,8.46279215812683,3.30896857380867,9.41055057805271
5.61522520845756,0.830265738666058,7.12883644580841,1.88647081375122,7.42081009048367
5.62521420838311,-0.969942564368248,5.00429039955139,-0.23724843621254,5.10294011347388
5.63520220853388,-3.08870980739594,2.04482744693756,-3.96234814524651,5.42417278358566
5.64519020845182,-4.61170103162527,-2.92584087789059,-8.02152852058411,9.70429034264605
5.65517820836976,-5.5796704530716,-13.6984638977051,-9.77696323156357,17.7304722315272
5.66516720852815,-6.04146015644074,-28.019380273819,0.797914702445269,28.6744063517122
5.67515520844609,-3.67538229614496,-31.421814250946,4.5335322368145,31.9592202718716
5.68514320836403,-1.35992407411337,-16.9142184984684,-2.06570390716195,17.0940724677693
5.6951312085148,-3.72240414261818,-6.88411526799202,-0.841302065849304,7.87115777951275
5.70511920843273,-5.93305043935776,-6.8211249679327,-0.323078837692738,9.04617119446029
5.71510820835829,-6.94790254354477,-12.4054995059967,-2.55798406273127,14.4469045201063
5.72509620850906,-6.21792035400868,-18.7297403669357,-3.40898753643036,20.0271541604182
5.735084208427,-2.88747817307711,-20.6680128335953,-2.26609105736017,20.9914138011212
5.74507220834494,-1.63576004058123,-16.2906258130074,-0.566025531738997,16.3823253902602
5.75506120850332,-3.76205762028694,-11.0987964963913,0.10459630921483,11.719526508975
5.76504920842126,-5.69427587985993,-8.42702590942383,-0.0157193621993065,10.1705354122781
5.7750372083392,-6.20568680942059,-7.33437777042389,-0.717231020182371,9.63421332503161
5.78502520848997,-5.07292618632317,-6.79135854721069,-1.57538359209895,8.62200466660217
5.79501320840791,-3.139603972435,-5.97295476257801,-1.97681014940143,7.03143513561133
5.80500220833346,-0.854532853066921,-4.7607234621048,-1.65132255122066,5.11092755258531
5.81499020848423,0.844396997094154,-3.10473702549934,-1.08807678580284,3.39651429821975
5.82497820840217,1.86655022710562,-1.16888647556305,-0.911976045817137,2.38369579670026
5.83496620855294,2.3939898365736,0.731095499396324,-1.08918658733368,2.72983797850401
5.8449552084785,2.62117726117373,2.56574828803539,-1.38263261318207,3.91986064230419
5.85494320839644,2.83768153041601,4.28507293403149,-1.45623619437218,5.34180778125093
5.86493120854721,3.16364450722933,5.73505728542805,-1.23894313573837,6.6659214463461
5.87491920846514,3.53613699495792,6.93963516533375,-0.938096873760223,7.84492363376506
5.88490720838308,3.58582868009806,7.90005378484726,-0.847012383565307,8.71702054055205
5.89489620854147,3.78468283653259,8.88193051636219,-0.782990123033524,9.68636089578529
5.90488420845941,3.76471020966768,9.60842250287533,-0.798499204739928,10.3504795510405
5.91487220837735,3.85375979572535,10.5143357169628,-0.476870768889785,11.2084845479829
5.92486020852812,3.94843001782894,11.3463067960739,0.210661183185875,12.0155380924213
5.93484920845367,4.11842114835978,11.6414578700066,0.637200325727463,12.3649083437566
5.94483720837161,4.50831933528185,11.5354782557488,0.72289361000061,12.4062394378437
5.95482520852238,4.56433741539717,10.9832496678829,0.241595256328583,11.8963573238418
5.96481320844032,4.10914307892323,9.96581192493439,-0.672747888565064,10.800696916764
5.97480120835826,3.545520606637,8.86207278728485,-1.25538784503937,9.6272035971353
5.98479020851664,3.05857793569565,8.20449316084385,-1.58183555603027,8.8977980838733
5.99477820843458,2.88259779453278,7.88785590827465,-1.45980884313583,8.52400626074654
6.00476620835252,2.78617516189814,7.65366732001305,-0.875647441148758,8.19195666000524
6.01475420850329,2.79759243518114,7.55913479983807,-0.180319944620132,8.06223031412111
6.02474320842885,2.83941552221775,7.54052954435349,0.443175677061081,8.06958927070129
6.03473120834678,2.79465771764517,7.62001425504685,1.0550552932173,8.18461182205098
6.04471920849755,2.59755304813385,7.73300877392292,1.48516719415784,8.29170839634638
6.05470720841549,2.39546888977289,7.86914306402206,1.46749120742083,8.35554990457084
6.06469520833343,1.91791743189096,7.70341016829014,1.33014932110906,8.04923802063984
6.07468420849182,1.0940771985054,7.07404335737228,0.716368117332459,7.19390558860782
6.08467220840976,-0.730022535324097,5.75662824869156,-1.46741840958595,5.98540044479118
6.0946602083277,-2.26644305974245,3.88142326533794,-3.94468926161528,5.98019933434198
6.10464820847847,-2.77905588448048,1.41835910081863,-6.16756413280964,6.91185514028329
6.11463720840402,-4.67570670068264,-3.74786642789841,-8.28745754957199,10.2269589100638
6.12462520832196,-8.92182899236679,-12.6092012965679,-6.71114410400391,16.841331452445
6.13461320847273,-11.0099188184738,-21.7619216322899,-1.56190853744745,24.4384758894384
6.14460120839067,-7.1622474360466,-23.8945438528061,3.01096961349249,25.1259418188096
6.15458920854144,-0.590113867521286,-15.2591114830971,3.39146109223366,15.6425933262474
6.16457820846699,-1.10787136495113,-7.75096031069756,2.34478347033262,8.17329641099799
6.17456620838493,-2.84055689871311,-5.25621242344379,1.09582434654236,6.07432000586621
6.1845542085357,-3.88452696740627,-7.3639255052805,0.0875024127960205,8.32613987872365
6.19454220845364,-3.8576908788085,-12.5414659810066,0.158184432685375,13.1223157325196
6.20453120837919,-3.18799582153559,-17.3063690328598,-0.0299099698662758,17.5975742949406
6.21451920852996,-2.23764026015997,-18.7011930906773,-0.60400071233511,18.8442689911067
6.2245072084479,-1.81951551675797,-15.2791148078442,-1.04042285531759,15.4222069025439
6.23449520836584,-2.33682102441788,-10.9170241034031,-1.38770711928606,11.2502390562762
6.24448320851661,-3.26395495355129,-8.21070875108242,-1.67883954808116,8.99375574285375
6.25447220844217,-3.15394105285406,-6.7867047482729,-1.6840226662159,7.67089550479192
6.26446020836011,-2.18237413197756,-6.15072766005993,-1.46419659376144,6.6886530232427
6.27444820851088,-1.23262989699841,-5.09885332524777,-1.06980072855949,5.35370481948631
6.28443620842882,-0.247086376547813,-3.03295134365559,-0.795013021677733,3.14513771321621
6.29442520835437,0.78283254057169,-0.716364609003067,-0.39619680762291,1.13268572427687
6.30441320850514,1.76501800507307,1.11669422864914,-0.174247026443481,2.09586654745831
6.31440120842308,2.40850379526615,2.92185015320778,-0.171767807006836,3.79046211287433
6.32438920834102,2.36010083645582,4.52617000758648,-0.788286457881331,5.16504466926414
6.33437720849179,1.92960396945477,6.00323339939118,-1.28986770629883,6.43629873656078
6.34436620841734,1.70815821826458,7.30162517666817,-1.19880550861359,7.59398902861082
6.35435420833528,1.80208408981562,8.34540696501732,-0.982980101108551,8.59415931651849
6.36434220848605,2.05060625016689,9.21170821666718,-1.02720610141754,9.49292929695711
6.37433020840399,2.22712696641684,9.81048064112663,-1.23999095678329,10.1362321652262
6.38431920832954,2.71694617509842,10.2844652974606,-1.25576791405678,10.7111612828408
6.39430720848031,3.21871299952269,10.6635660159588,-0.635519762858748,11.1568651026617
6.40429520839825,3.87738079279661,11.1660347986221,0.566033864021301,11.8336304349767
6.41428320854902,4.40713940799236,11.1485106933117,1.38352840662003,12.0675730489726
6.42427220847458,4.71769935697317,10.423330821991,1.19717647433281,11.5037274028094
6.43426020839252,4.50639794021845,9.25933261871338,0.0959166292101145,10.2981582304475
6.44424845837057,3.75929978102446,8.20420489311218,-1.12401245757937,9.09421336766243
6.45423645852134,3.32693443626165,7.8024789583683,-1.40640856146812,8.59797392882385
6.46422445843928,3.17743925839663,7.61718303322792,-1.01407676339149,8.31540433680443
6.47421345836483,3.09445878982544,7.4040561157465,-0.489603592604399,8.0396165235005
6.4842014585156,3.03556446433067,7.16838467359543,-0.0482545857131481,7.78477481696082
6.49418945843354,3.04355468451977,7.02498814165592,0.227496523037553,7.65933666684412
6.50417745835148,3.01062462776899,7.02026826918125,0.428157761469483,7.65057816699554
6.51416645850986,2.9524357688427,7.30056566119194,0.652426621466875,7.90194890131007
6.5241544584278,2.67438224583864,7.64239856600761,0.973357045948506,8.15512110133686
6.53414245834574,1.94174308151007,7.10190650939942,1.17729608729482,7.45610275814394
6.54413045849651,0.73120308816433,5.68633009850979,0.563951085805893,5.76082014756068
6.55411845841445,-0.793837585151196,3.58005426228046,-1.41257488891482,3.92967358049799
6.56410745834,-2.53447065442801,0.687851831316948,-4.8556375131011,5.52031677520751
6.57409545849077,-5.36327728092671,-4.87788236796856,-10.3860711944103,12.6660552044906
6.58408345840871,-9.36419190645218,-16.2247791481018,-9.51771406173706,21.0123399322049
6.59407145832665,-8.82400156617165,-26.8562474584579,-0.626915950477123,28.2756795638706
6.60406045848504,-2.86927199006081,-23.0034843206406,3.20839441806078,23.4027094026471
6.61404845840298,-1.72548644185066,-9.37349248766899,4.13224045783281,10.3882181378111
6.62403645832092,-4.52976867645979,-2.49953500270844,4.19950068712235,6.66350399663285
6.63402445847169,-5.70492833733559,-0.651635347008705,3.4760457444191,6.71220753380733
6.64401245838963,-6.43662434577942,-3.27042138934135,2.15198118209839,7.53371170411022
6.65400145854801,-6.53551187217236,-9.64114469110966,0.199718959629536,11.649226328347
6.66398945846595,-5.84553457796574,-16.6786996686459,-2.11103927046061,17.7990388487836
6.67397745838389,-3.83968057751656,-21.7865617990494,-3.57411524534226,22.4091883330955
6.68396545853466,-2.18672329097986,-20.0282058191299,-2.26107736229897,20.2737085389685
6.69395445846021,-2.01247187912464,-12.8360393500328,-0.388207464516163,12.9986404787333
6.70394245837815,-2.82764156877995,-8.45936276614666,0.0434983143210411,8.91954412254962
6.71393045852892,-4.0243999671936,-6.99742202818394,-0.910424633324146,8.12333571566663
6.72391845844686,-3.56744240283966,-6.18816504299641,-2.18173678547144,7.46860142851527
6.7339064583648,-1.58297371655703,-5.30581669270992,-2.74762768507004,6.18117743312008
6.74389545852318,0.40917499512434,-3.73092412054539,-2.49805448770523,4.508602354771
6.75388345844112,1.73242065489292,-1.71560055434704,-1.80829704880714,3.03554028210797
6.76387145835906,2.58124779492617,0.127178694605827,-1.11760858699679,2.81568172080969
6.77385945850983,2.76731233656406,1.81503479540348,-0.663249671459198,3.37524354725933
6.78384845843539,2.72941653192043,3.38720490396023,-0.526185089349747,4.38175106714049
6.79383645835333,3.14440395176411,4.86698315799236,-0.392258123159409,5.80763873766573
6.8038244585041,3.54237129628658,6.11705880761147,-0.0539147635549307,7.06892563677546
6.81381245842204,3.65843794226646,7.28035066723824,-0.0746361263841391,8.14820499047077
6.82380145834759,4.2315679872036,8.63375597298145,-0.329460196495056,9.6206264792057
6.83378945849836,4.71681496560574,9.74012051045895,-0.339047291278839,10.8274301680384
6.8437774584163,4.63492617219687,10.4446217036247,-0.248468146696687,11.4295406545262
6.85376545833424,5.21776054859161,10.921979033947,-0.0128206050395966,12.1043304452717
6.86375345848501,6.00816377162933,10.9686702203751,0.244158602580428,12.508771791558
6.87374245841056,6.20686502337456,10.3739452385902,0.153797047510743,12.0899779471876
6.8837304583285,6.00493844747543,9.60100589454174,-0.226787840500474,11.32651900054
6.89371845847927,5.40887386858463,8.96615264117718,-0.836161120757461,10.5046168483678
6.90370645839721,4.39708453595638,8.35123780846596,-1.80175401449204,9.60852969390407
6.91369545832276,3.25262421905994,8.05673694491387,-2.29372353672981,8.98619731437629
6.92368345847353,2.44491148352623,7.88272205293179,-2.11436487436295,8.51970879478843
6.93367145839147,2.04818316400051,7.51118470788002,-1.60781458899379,7.94971809196824
6.94365945854224,2.31231680542231,7.27411753535271,-0.605599560365081,7.65678429592205
6.9536484584678,2.51636592060328,7.20661435425282,0.634743471890688,7.6596532018365
6.96363645838574,2.42752624958754,7.17507798135281,1.62185872390866,7.74629288442214
6.97362445853651,2.16834841579199,7.47288193702698,2.65745192527771,8.2223932058844
6.98361245845445,1.82540600180626,8.19146848797798,3.24311840057373,8.99722624040913
6.99360045837238,1.46672171384096,9.0116264373064,3.27460799574852,9.69967737387344
7.00358945853077,1.00767289280891,9.55669978737831,2.44549883633852,9.9159659158103
7.01357745844871,0.186921158730984,9.1728306645155,1.0759299261868,9.23760721862115
7.02356545836665,-0.946477687954903,7.26858957767487,-1.00638679772615,7.39871805444143
7.03355345851742,-2.11981974184513,4.37016804814339,-3.9252393758297,6.24495865995073
7.04354245844297,-2.95794443070889,-0.0880748552083969,-6.45351227402687,7.09964880161668
7.05353045836091,-4.68986164033413,-8.40936907231808,-7.30920667648315,12.088705168027
7.06351845851168,-7.87276599884033,-21.8059722161293,-0.588135169744492,23.1910925085687
7.07350645842962,-6.97369987428188,-30.8122958135605,8.54309080123901,32.7263573236792
7.08349445834756,0.0253348159790039,-24.4484646248817,3.14635545998812,24.6501037938503
7.09348345850594,0.188615097105503,-10.7975841987133,-3.52698697954416,11.3605914166928
7.10347145842388,-2.69642537176609,-4.66443794667721,-2.28433758616447,5.85199874841664
7.11345945834182,-5.20660698473454,-7.66895311117172,-2.87583285838366,9.70525696435679
7.12344745849259,-6.88591679513455,-17.9182450675964,-4.42341191679239,19.6988814250348
7.13343645841815,-2.20226314365864,-23.6250129389763,-1.13502641916275,23.7545676511468
7.14342445833609,0.985737940371037,-18.3959672641754,-0.217852929532528,18.4236465112259
7.15341245848686,-3.09727334707975,-11.2002924656868,-2.46773170441389,11.8797875935734
7.16340045840479,-5.36635583996773,-7.52537765443325,-3.11015388607979,9.75203266186574
7.17338945833035,-4.7910199329257,-6.09377577960491,-2.30702814504504,8.0876667903556
7.18337745848112,-2.90617493748665,-6.06365209400654,-1.69911199092865,6.93546761524722
7.19336545839906,-1.28567349851131,-6.72276602983475,-1.51280215859413,7.00978671627899
7.20335345854983,-0.406735244393349,-7.05383947312832,-1.72469458267093,7.27300874983589
7.21334145846777,-0.0553614377975464,-5.98919131100178,-1.56394906952977,6.19026769539551
7.22333045839332,0.299406092762947,-3.62488895773888,-1.38309439703822,3.8913254908115
7.23331845854409,0.841308205425739,-0.920842325091362,-1.83572619125247,2.2193784565609
7.24330645846203,1.44440172225237,1.73086178719997,-2.41834962934256,3.30614485335655
7.25329445837997,2.32502572864294,4.27116416215897,-2.06549136087298,5.28344986735028
7.26328345853835,2.5134414356947,6.13967408359051,-1.5869986474514,6.82140384454641
7.27327145845629,2.77518941313028,7.70302132844925,-1.45363652229309,8.31572444253889
7.28325945837423,3.22821443259716,9.06416542410851,-1.05169657945633,9.67918017983305
7.293247458525,3.50515347629786,9.69779485523701,-0.741775438785553,10.3384504036267
7.30323645845056,4.15193768084049,9.97993178129196,-0.277408246211708,10.8127045737822
7.3132244583685,4.88095800340176,10.3301238656044,0.177556550502777,11.4265802600046
7.32321245851927,5.09035556674004,10.4547233533859,0.343652521781623,11.6331877508876
7.3332004584372,4.97999112546444,10.4331319248676,0.633562188148499,11.5780807743619
7.34318845835514,4.69407075852156,10.2429699468613,0.653710523843765,11.2862779988486
7.35317745851353,3.86194443583489,9.68965553104878,0.214340251274407,10.4331194222618
7.36316545843147,2.46985395133495,8.94134582877159,-0.384012306556106,9.28414289109138
7.37315345834941,1.45704749554396,8.21143205165863,-1.11016873598099,8.41326799559049
7.38314145850018,1.22684203058481,7.86112828552723,-1.48249837875366,8.09322437181455
7.39313045842573,1.33589728027582,7.76394639194012,-1.28493616461754,7.98213919118868
7.40311845834367,1.57058405131102,7.76377214491367,-0.511370583772659,7.93753060178781
7.41310645849444,2.14451194882393,7.69668411612511,0.418853745013475,8.00083222807309
7.42309445841238,3.04007793009281,7.59090856969357,1.12041079200804,8.25344092347748
7.43308345833793,3.96190492630005,7.61422317266464,1.51655256271362,8.71625015953862
7.44307100004517,4.57969220370054,7.52439181387425,1.78879541516304,8.98831696629806
7.45305900019594,4.68270406365395,7.63444927632809,2.18271049305797,9.21828390738173
7.46304700011388,4.68652960449457,7.95155313670635,2.78047851204872,9.6395963492064
7.47303500003181,4.56791649609804,8.60167171597481,3.36193148374558,10.3032616547444
7.4830240001902,3.6077861443162,8.60690672814846,2.79401247739792,9.74173855192298
7.49301200010814,1.78935440897942,7.46842343509197,0.896684261262417,7.73195838524502
7.50300000002608,-0.893024781346321,5.09640041828156,-1.73918208271265,5.45852954561829
7.51298800017685,-3.16099016368389,2.50786260724068,-3.99044986367226,5.67493821871078
7.5229770001024,-4.23712868928909,-1.6889910453558,-8.23513432502747,9.41399955556268
7.53296500002034,-7.13822473526001,-11.103650854826,-8.21696585655213,15.5487569459651
7.54295300017111,-13.5598743617535,-24.9064863824844,3.09910206377506,28.5273148093037
7.55294100008905,-9.20164048075676,-27.8611897015572,10.9444358503819,31.3160782219993
7.5629300000146,1.82478999763727,-15.2246433162689,3.49023138195276,15.7258175540306
7.57291800016537,-0.752377025485039,-6.20091431200504,-1.51029838085175,6.42638395153216
7.58290600008331,-4.15662480890751,-4.05266599237919,-2.49114454060793,6.31723298367354
7.59289400000125,-7.05455575704575,-8.86621787846089,-2.81228619575501,11.6741393706106
7.60288200015202,-6.58958516836166,-16.263253827095,-2.53282787919045,17.72939014183
7.61287100007758,-4.43480638593435,-21.9099637770653,-3.25373606711626,22.589838839343
7.62285899999552,-1.63146993845701,-22.6524268484116,-4.3392049947381,23.1219124699728
7.63284700014629,-0.753729194104672,-16.8141621136665,-2.98840550065041,17.0942891843745
7.64283500006422,-2.3133549785614,-11.2032347846031,-2.2332703435421,11.6555384827609
7.65282399998978,-4.16383851885796,-8.70933006584644,-3.12811770200729,10.1476648429377
7.66281200014055,-4.53441838234663,-7.66051733314991,-3.84903846144676,9.69843146881751
7.67280000005849,-4.00153910815716,-6.9920724105835,-3.81629873156548,8.91434393758186
7.68278800020926,-3.46701471984387,-5.86527360856533,-3.25351591944695,7.55029743844848
7.69277700013481,-2.98940800577402,-3.77279837071896,-2.13941902399063,5.26760681251918
7.70276500005275,-2.13362034022808,-1.26177768230438,-1.30366845086217,2.80070885769474
7.71275300020352,-0.828609222471714,1.28845735788345,-1.0132825653255,1.83669735227168
7.72274100012146,0.732157646119595,3.51122610211372,-0.350763868913055,3.60385888329038
7.73273000004701,1.50534491211176,5.19352383971214,-0.249325275421143,5.41303207740754
7.74271800019778,2.11743407785893,6.85764258384705,-0.549365791082382,7.19809639101077
7.75270600011572,2.71591092556715,8.03849421679974,-0.142942057102919,8.48610593033263
7.76269400003366,3.28572472214699,8.83494170665741,-0.0228846864402294,9.42617131282028
7.77268200018443,4.09092578619719,9.73387392997742,0.00802237987518311,10.5586002780409
7.78267100010999,4.82219465553761,10.560964922905,0.0569412092864513,11.6099433116635
7.79265900002793,5.47463633358479,11.1692753255367,0.424366426840425,12.4460612704132
7.8026470001787,5.88189899682999,11.5384182357788,0.833724074363709,12.9779400146879
7.81263500009663,6.05786627411842,11.6294968056679,1.11064923092723,13.1596535464388
7.82262400002219,5.93689322948456,11.2541874217987,1.040328495875,12.7665860402302
7.83261200017296,5.4204718208313,10.4667616009712,0.808695506304503,11.8147620201978
7.8426000000909,4.39345429211855,9.26804555475712,0.322110246419907,10.2617183762193
7.85258800000884,3.39370349943638,8.11746729612351,-0.0888532657921314,8.79877228075391
7.86257700016722,2.95921970844269,7.49350682079792,-0.0129388649761677,8.05666141589725
7.87256500008516,3.07814359635115,7.24945456445217,0.442908751666546,7.88832857100393
7.8825530000031,3.20546525537968,7.01178688287735,0.980564031600952,7.77185104170214
7.89254100015387,3.17591781288385,6.75106421470642,1.45719864606857,7.60175965677597
7.90252900007181,3.02881706982851,6.47884884417057,1.77802279740572,7.36957123964409
7.91251799999736,2.94388158470392,6.36893463850021,1.81140893697739,7.24644530450677
7.92250600014813,2.87547617822886,6.61195720016956,1.65941480532289,7.39864844174668
7.93249400006607,2.89862501263619,7.09336723566055,1.58542121484876,7.82505246834264
7.94248200021684,3.23536791622639,7.68762327075005,1.76437831968069,8.52526761816214
7.9524710001424,3.15773121803999,7.94935107529163,1.96053983330727,8.77537266454303
7.96245900006034,1.9492161154747,7.39508648693562,1.49022401243448,7.79150275757638
7.97244700021111,-0.618497129380703,5.20000957131386,-1.27678982377052,5.39006776347866
7.98243500012904,-2.72719312816858,2.42809839963913,-4.7320387762785,5.97707580484499
7.9924240000546,-3.86042006671429,-1.65772072076798,-6.64087109684944,7.85824726033256
8.00241200020537,-6.15110948324204,-9.57488287389278,-5.84030658245087,12.7915484168499
8.01240000012331,-9.06885722994804,-20.8471387767792,1.50388369292021,22.7839643784242
8.02238800004125,-4.51298775225878,-25.446712975502,7.59133717060089,26.9356763372923
8.03237600019202,2.28866189450026,-15.515568022728,2.58231432706118,15.8946271305426
8.04236500011757,0.320949574112892,-5.00514116942883,-0.869125164449215,5.09016947718968
8.05235300003551,-2.00886385470629,-0.868709135055542,-0.21033487200737,2.19873379617832
8.06234100018628,-3.79595042109489,-3.85475002169609,-0.00369894862174988,5.41002319878551
8.07232900010422,-4.81092151612043,-11.7055480313301,-1.54011245638132,12.7489908199178
8.08231800002977,-4.32989154964685,-18.6693959319592,-3.41806124567986,19.4673431154633
8.09230600018054,-3.75905770629644,-22.8841169214249,-4.45360284537077,23.6145696640232
8.10229400009848,-4.3251158362627,-21.883452501297,-4.7033725091815,22.7972330192446
8.11228200001642,-4.43169712901115,-16.0779274964333,-3.76536919087172,17.0973008737466
8.12227100017481,-5.02965094327927,-10.5339063477516,-2.94199264168739,12.0381016883134
8.13225900009275,-6.39853441357613,-7.28327193617821,-3.29437480062246,10.2391502608867
8.14224700001068,-6.755657787323,-5.73929008483887,-3.42558661222458,9.50331555064862
8.15223500016145,-6.34414127469063,-5.02793127715588,-2.93720289498568,8.61135194306607
8.16222400008701,-5.31233926177025,-3.75835808694363,-2.08581277415156,6.83350706962787
8.17221200000495,-3.36045272290707,-1.7848473751545,-1.17723264500499,3.9829887466518
8.18220000015572,-0.986407154202461,0.397196096777916,-0.495207710266113,1.17302791504057
8.19218800007366,1.32134209871292,2.50459109008312,0.341941516846418,2.85234034983521
8.20217699999921,2.61725377947092,4.14531746327877,0.302503216713667,4.91173924528174
8.21216500014998,3.39810645282269,5.72949541389942,-0.0482303197681904,6.66157423784759
8.22215300006792,4.12429321467876,7.21993840456009,0.0522774700820446,8.31504888862147
8.23214100021869,4.82834154099226,8.13472476840019,0.100035334825516,9.46026617819545
8.24212900013663,5.35781481206417,8.75982194244862,0.206644109487534,10.2705093258204
8.25211800006218,5.77139831542969,9.30429829180241,0.0853167235851288,10.949259525717
8.26210600021295,6.15393018007279,10.0537914705277,-0.0271547618508339,11.7877189046548
8.27209400013089,6.14751929283142,10.6702248251438,0.260755266398191,12.3172109092848
8.28208200004883,6.24362529873848,10.9145203256607,0.917366228476167,12.6075838925409
8.29207100020722,5.96825769424439,10.2613255262375,1.19850496172905,11.9311070569168
8.30205900012516,5.17203473746777,9.23107419490814,0.820109271258116,10.6129757059119
8.31204700004309,3.874662129879,8.22697979807854,0.265747765302658,9.09762744310154
8.32203500019386,2.7523493117094,7.30441839158535,-0.377849560528994,7.81490403417659
8.33202400011942,2.0829384291172,6.76507531285286,-0.906444725990296,7.13628184206174
8.34201200003736,1.7447553563118,6.47638716638088,-1.16217036366463,6.80723159121401
8.35200000018813,1.77137539029121,6.26140726625919,-1.15924785219133,6.60960265901839
8.36198800010607,2.20408221244812,6.39791636288166,-0.821303345784545,6.81658648969233
8.37197700003162,2.6236863014102,6.75649218499661,-0.25068292580545,7.25236226228517
8.38196500018239,2.83419074267149,7.19799789726734,-0.0572068190574646,7.73608967858158
8.39195300010033,2.92441766560078,7.65456135928631,-0.155500853061676,8.19565182284239
8.40194100001827,3.09456667095423,8.23300301492214,-0.0685843312740326,8.79564581683427
8.41192900016904,3.50208690404892,9.08293907940388,0.482719227075577,9.74666162621138
8.42191800009459,3.57979581534863,9.78798932611942,1.56043825507164,10.5382465655206
8.43190600001253,3.03813636213541,9.663610278368,2.66908788442612,10.4756702077671
8.44189483346418,1.3680987739563,8.04888822734356,2.26509907722473,8.47271914919967
8.45188283338212,-1.24396735578775,5.14604094028473,-0.424117116183043,5.31122090197645
8.4618718335405,-3.3222209957242,1.54391402363777,-4.3964752560854,5.72274562899551
8.47185983345844,-5.48236401379108,-4.7410703855753,-8.09898073911667,10.8686499894547
8.48184783337638,-9.53204792618752,-17.7147643017769,-6.42898905158043,21.1188236452693
8.49183583352715,-9.52577327907085,-30.0879708051682,4.20578702867031,31.8388911281069
8.5018248334527,-2.02579008221626,-26.0101647090912,5.79019068181515,26.7237497702519
8.51181283337064,1.56180474936962,-10.3864723134041,1.38378831535578,10.5940035536136
8.52180083352141,-0.967095847427845,-2.27287061154842,-0.132952820062637,2.47363935271803
8.53178883343935,-2.85366284787655,-2.28073277771473,0.67762329697609,3.71541477971141
8.5417778333649,-4.58684159427881,-9.17666409909725,-0.408480930626392,10.2672847661566
8.55176583351567,-5.67199097156525,-18.5330996739864,-2.45940673112869,19.537040374032
8.56175383343361,-4.87182903796434,-26.110884168148,-3.74182654649019,26.8237629001156
8.57174183335155,-1.95639883518219,-24.6819486236572,-3.63029470860958,25.0240908712887
8.58173083350994,-0.740442273616791,-15.3383014941216,-2.91972059726715,15.6312672503299
8.59171883342788,-2.62774543851614,-9.5859534072876,-2.1530477142334,10.1701112715691
8.60170683334582,-4.46480114042759,-7.25505444288254,-1.33694934055209,8.62309096159584
8.61169483349659,-4.59593050628901,-5.54630097806454,-1.00072040721774,7.27223989506257
8.62168383342214,-4.06839354068041,-3.88607297122479,-1.22585355877876,5.75813390666668
8.63167183334008,-3.34333353728056,-2.00140368461609,-1.24953712105751,4.09204580463128
8.64165983349085,-2.16162090182304,0.086355773806572,-1.18540712557733,2.46683041497333
8.65164783340879,-1.05913657665253,2.25499274969101,-1.80056483700871,3.07388944521993
8.66163583332673,-0.122036068439484,4.07604608416557,-2.37463379859924,4.71889077641044
8.67162483348511,0.939769762158394,5.31861040055752,-2.35414164662361,5.89175412684148
8.68161283340305,2.15278605133295,6.28808694183827,-1.69857287764549,6.86000546585814
8.69160083332099,3.1629232531786,7.30276421427727,-0.747723226547241,7.9933433992507
8.70158883347176,4.24029291003943,8.22032566666603,-0.0837215666100383,9.2499106660386
8.71157783339731,5.11058459401131,8.99385031700134,0.313663358688355,10.3491933559942
8.72156583354808,5.81635872602463,9.77814436912537,0.675692546367645,11.3973109350617
8.73155383346602,6.29978312730789,10.4954714298248,1.15159508943558,12.2950542591481
8.74154183338396,5.86966077446938,10.8477603256702,1.4618822658062,12.420302792187
8.75153083354235,4.9621793371439,10.270489282608,0.740414280071855,11.4304150049016
8.76151883346029,3.815552919209,9.18435786545277,-0.176349685192108,9.94695796168134
8.77150683337823,2.6389951890707,8.45596670329571,-0.910454746484757,8.90486363402498
8.781494833529,1.62726871401072,7.89987369060516,-1.78927605628967,8.26181073377533
8.79148383345455,0.875472317039967,7.50515681326389,-2.63121780753136,8.00107103582107
8.80147183337249,0.71315185636282,7.37113219857216,-2.77666495800018,7.9089850011267
8.81145983352326,1.12597843766212,7.29861152172089,-1.88884829163551,7.62268361247476
8.8214478334412,1.88001197934151,7.09967696607113,-0.465400870665908,7.35910701345246
8.83143683336675,2.84976509392262,6.99315297603607,0.757948837280274,7.5894555850019
8.84142483351752,3.74902826964855,7.16366304695606,1.56722000196576,8.23586423828789
8.85141283343546,4.16657560050488,7.55876700997353,1.95700811505318,8.85015207260139
8.8614008333534,4.35771523296833,8.07871428966522,2.36787792563438,9.47956499510351
8.87138983351179,4.78612288981676,8.73465786516666,3.31136710166931,10.4960169788336
8.88137783342972,5.15261788845062,9.40975867331028,4.42637177735567,11.6054209964865
8.89136583334766,4.9124247944355,9.9383417057991,4.73708433866501,12.0558086105344
8.90135383349843,3.76828987509012,9.72641522169113,3.93639381676912,11.1489173433186
8.91134183341637,1.5308995833993,7.73416944622994,1.85201799586415,8.098827150548
8.92133083334193,-1.54833334922791,4.5644663465023,-2.60080760836601,5.47685031787596
8.9313188334927,-4.29265180259943,1.08754527390003,-8.05540027141571,9.19233853564297
8.94130683341064,-5.19232866883278,-5.83228654146194,-12.2556564188004,14.5319289002728
8.95129483332858,-7.46393101930618,-19.0942745018005,-6.48837103486061,21.5035007312086
8.96128383348696,-7.8512172549963,-29.7506776785851,6.8229943227768,31.5166255530134
8.9712718334049,0.0938650605082512,-24.4256394338608,6.5634118616581,25.2922724892073
8.98125983332284,2.62580153167248,-9.73485626220703,3.37201120644808,10.6316847068551
8.99124783347361,-3.44266369789839,-2.73273424208164,0.661109882891178,4.44486625804752
9.00123683339916,-8.75129787147045,-2.88642830550671,-3.63355570077896,9.90552420766801
9.01122483354993,-9.95590206384659,-8.65930187344551,-4.58612180203199,13.9691090633381
9.02121283346787,-7.8746055328846,-16.3218019974232,-2.58811301082373,18.3059815824888
9.03120083338581,-5.04416724085808,-22.4232089781761,-2.4506476020813,23.1138399601254
9.0411898335442,-3.00336618661881,-23.5326947593689,-3.34017370194197,23.9575602148403
9.05117783346213,-1.21625506192446,-17.702174077034,-2.54636915355921,17.9256865780775
9.06116583338007,-1.31212016254663,-12.0783127069473,-1.04377623349428,12.1941283408604
9.07115383353084,-3.7098843768239,-9.30782474756241,-0.573671497106552,10.0363311328059
9.0811428334564,-5.86718447864056,-7.52157696425915,-0.554492629766464,9.55538778973098
9.09113083337434,-6.42494745612145,-5.88179082334042,-0.667315094321966,8.73617322049894
9.10111883352511,-5.55731070041657,-3.79120715975761,-0.539087701588869,6.74889394635641
9.11110683344305,-4.19740650683642,-1.42689311206341,-0.473624614030123,4.45853850627107
9.1210958333686,-2.25023136198521,0.898401296138764,-0.432733865529299,2.46128516627829
9.13108383351937,-0.251576161086559,3.06496835768223,-0.332572084665299,3.09320639303603
9.14107183343731,1.12882573932409,5.04751067876816,-0.508889025449753,5.19717034955199
9.15105983335525,1.99200837850571,6.65704040229321,-1.03790548279881,7.02577626238018
9.16104883351363,2.90784197866917,7.69334360182285,-1.22787552595139,8.31569354027971
9.17103683343157,3.82138697862625,8.10106351733208,-0.935764857977629,9.00588054671441
9.18102483334951,4.68764759212732,8.52583566784859,-0.472653903141618,9.74101203650274
9.19101283350028,5.729711176157,9.21814424693585,-0.354197500124574,10.8595225212064
9.20100083341822,6.35302436470986,10.0399078416824,-0.346611249446869,11.8861603306668
9.21098983334377,6.28355768859387,10.7130743908882,-0.239977989569306,12.4221837680043
9.22097783349454,5.94601020812988,10.9651712465286,-0.200634268149734,12.4751862499299
9.23096583341248,5.28510994791985,10.7782614898682,-0.488035442456603,12.0142201785497
9.24095383333042,4.07333268374205,10.0447692167759,-1.29302988052368,10.9161052597828
9.25094283348881,3.05791310727596,9.037513230443,-2.28058952093124,9.80961602332445
9.26093083340675,2.70079265713692,8.31725788414478,-2.74331010103226,9.16497735941769
9.27091883332469,2.85234050005674,7.90684707999229,-2.53278811812401,8.77890042806938
9.28090683347546,3.37141683697701,7.47669724524021,-1.73726624250412,8.38364760608287
9.29089583340101,3.93713582843542,6.98477917850018,-0.484327430650592,8.03260554017438
9.30088383355178,4.25620552271605,6.44593486726284,0.819461545944214,7.76768169983005
9.31087183346972,4.33608930587769,6.11150863051415,1.60472989037633,7.66337825181969
9.32085983338766,4.35609175354242,6.24069818258286,2.03666604951024,7.87844259791241
9.33084883354604,4.46974496126175,6.71366074562073,2.52664737224579,8.45197063232534
9.34083683346398,4.59304081231356,7.38682612538338,3.11004512786865,9.23761900099825
9.35082483338192,4.32086607992649,8.09637755870819,3.47352208614349,9.81257198377365
9.36081283353269,3.74090034753084,8.49606281518936,3.12987186670303,9.7966074062289
9.37080183345825,2.590924936831,7.95843530952931,1.97819491624832,8.6001650990505
9.38078983337618,1.20222905337811,6.80521469414234,0.636291814595461,6.93982485394829
9.39077783352695,-0.347094521820545,5.28613905787468,-1.0618273191154,5.40288978250397
9.40076583344489,-2.26016256541014,2.64259356558323,-4.46932980895042,5.66273295468858
9.41075483337045,-4.15066591143608,-2.45386181652546,-9.48079825043678,10.6364938202607
9.42074283352122,-8.44878866136074,-14.275598115921,-9.25961211562157,18.9977669199143
9.43073083343916,-12.0700014746189,-29.3926971030235,4.19196128726006,32.0497756313719
9.4407183334697,-6.83533370196819,-29.5800629425049,4.85661516755819,30.7455463666784
9.45070733339526,-1.47440027743578,-13.2402164375782,0.128606877028942,13.3226771791873
9.46069533354603,-3.54002305448055,-4.26594552218914,0.173431632220745,5.54618183578524
9.47068333346397,-7.48967163205147,-7.82522755086422,-2.83510817080736,11.1967497837069
9.48067133338191,-9.26049855351448,-18.1761797833443,-5.4872294819355,21.1243942484399
9.49066033354029,-3.37312743991613,-24.9215838932991,-2.21165552616119,25.2458858557797
9.50064833345823,3.08473720908165,-22.1586411809921,1.55710621923208,22.4264478331952
9.51063633337617,0.766631075441837,-13.7074662709236,1.16934577435255,13.7785966017711
9.52062433352694,-3.30214808911085,-8.89648072779179,0.476340207159519,9.50149732070403
9.53061333345249,-5.82918459355831,-6.94667228937149,1.30269430473447,9.16147703011294
9.54060133337043,-6.32361520886421,-5.61572964727879,1.57220753073692,8.60211400184923
9.5505893335212,-5.12772161364555,-4.05401377558708,1.0371720957756,6.61848038419343
9.56057733343914,-3.66137353688479,-2.30906370699406,0.113589180707932,4.33016557206895
9.5705663333647,-2.39120626956224,-0.334385306239128,-0.47440112426877,2.46063759691058
9.58055433351547,-1.14327333211899,1.43268010139465,-0.830219253301621,2.01219039691063
9.59054233343341,0.230770598351955,2.6407382440567,-1.76094161868095,3.18239986913808
9.60053033335134,1.44923824667931,3.57075835883617,-2.81991915106773,4.77520164719723
9.61051933350973,2.62823718935251,4.65594428122044,-3.16025399923325,6.21068862631147
9.62050733342767,3.49429928988218,5.91852010846138,-3.14890221476555,7.56006567165182
9.63049533334561,4.18451310396195,7.28067694187164,-3.02979443192482,8.92737704753492
9.64048333349638,4.49598375678063,8.49219897508621,-2.60780204772949,9.95650264369134
9.65047233342193,4.55632175981998,9.53237887859345,-1.86794917345047,10.7291914503684
9.66046033333987,4.91241076111794,10.4971624445915,-1.03504604816437,11.6358720857489
9.67044833349064,5.22713538944721,10.7996599602699,-0.700572448968887,12.0185856652654
9.68043633340858,5.13742506802082,10.4374120867252,-0.954921652078629,11.6723854785239
9.69042433332652,4.31239872694016,9.49369896233082,-1.79267328858376,10.5802070058708
9.7004133334849,3.33115320235491,8.35126645982266,-3.25874333024025,9.56345341562887
9.71040133340284,2.88166516363621,7.83126012325287,-4.1421219599247,9.31610452733628
9.72038933332078,2.78481890022755,7.71699208080769,-4.03814443230629,9.14405782672438
9.73037733347155,2.91670606523752,7.68906870245934,-2.98211740493774,8.74768403630159
9.74036633339711,3.20423763245344,7.77356740057468,-1.3021234703064,8.5082909252347
9.75035433354788,3.53212317377329,7.83158347427845,0.388294734209776,8.60002131566618
9.76034233346582,3.89225669413805,7.8201147454977,1.98126002669334,8.95707810054071
9.77033033338375,4.28194788962603,7.68694499373436,3.19851467013359,9.36240872645658
9.78031933354214,4.42315142333508,7.52718678295612,3.80372721791267,9.52319012345916
9.79030733346008,4.56283088028431,7.94038846313953,4.63864061594009,10.2657771917904
9.80029533337802,4.18572669357061,8.5879494702816,5.13467863082886,10.8461103027431
9.81028333352879,3.365309420228,9.0056856662035,4.10408114433289,10.4532848354767
9.82027233345434,2.85220455229282,8.80236803770065,3.1857864511013,9.78600987079385
9.83026033337228,1.75743182748556,7.67228193104267,2.32710178256035,8.20779381832041
9.84024833352305,-0.0903242790699005,5.98095901608467,-0.0333887708187103,5.98173419983627
9.85023633344099,-2.15156076729298,3.77445196330547,-3.33396805197001,5.47640797696917
9.86022533336654,-2.60199108481407,-0.126285824775696,-5.07513994216919,5.70467800560139
9.87021333351731,-3.07672476947308,-7.49558082818985,-3.98294788599014,9.02850159891052
9.88020133343525,-6.84799116969109,-18.6289250135422,-0.540238141268492,19.8550670477243
9.89018933335319,-9.03100352525711,-27.6632287073135,4.40105888843536,29.4309797072034
9.90017833351158,-2.91256535947323,-21.9564257526398,1.19737878799439,22.1811042278405
9.91016633342952,0.332453678548336,-8.17546290457249,-0.183619236052036,8.18427975916448
9.92015433334746,-2.47569853574038,-3.79425122022629,0.40017671495676,4.54813884630288
9.93014233349823,-5.12886532902718,-5.72409901857376,-0.492079449892044,7.70147462001533
9.94013133342378,-7.61097855269909,-12.122221788168,-2.00732442900538,14.4535326814748
9.95011933334172,-7.69857510566712,-18.1366642999649,-3.87137599468231,20.0796962795611
9.96010733349249,-5.40981234669685,-21.321677749157,-4.97538527369499,22.5529259806143
9.97009533341043,-3.29266127407551,-18.93461627841,-4.38272786736488,19.7121692219756
9.98008433333598,-2.95651537120342,-14.0295309090614,-2.97248411715031,14.6425538242201
9.99007233348675,-3.85630567342043,-11.5795756173134,-2.3038355652988,12.4203592233022
10.0000603334047,-4.65937659680843,-10.2308545160294,-2.36729671239853,11.4884406306329
10.0100483333226,-4.44082463264465,-8.95401031315327,-2.87986129760742,10.4013857345748
10.020037333481,-3.2047919484973,-7.44645953893662,-3.26304337263107,8.73887310526047
10.030025333399,-1.7378217279911,-5.39770393252373,-3.08281347513199,6.45437611422789
10.0400133335497,-0.425786057710648,-2.79177591741085,-2.51296839594841,3.78025352311343
10.0500013334677,0.652836657464504,-0.0549375146627426,-1.96842524215579,2.0745871314078
10.0599903333932,1.18743705958128,2.57614288330078,-1.58442119479179,3.24913980126337
10.069978333544,1.79871872484684,4.6319946706295,-1.27377967715263,5.12964700011432
10.0799663334619,2.7927711135149,6.19807431936264,-0.710940804854035,6.83528584543707
10.0899543333799,3.71798481702805,7.51616595089436,-0.0507140707969666,8.38562660854939
10.0999433335383,4.6604741191864,8.93703876972199,0.485273217782378,10.0908954549642
10.1099313334562,5.37152127027512,10.122952337265,0.591400181874633,11.4750668387892
10.1199193333741,5.75234691739082,10.8675858950615,0.31151859998703,12.3000391089904
10.1299073335249,6.10172506928444,11.352186756134,-0.00925029516220093,12.8881060879882
10.1398963334505,6.10733956575394,11.4724639821053,-0.258542899265885,12.9993796322319
10.1498843333684,5.90401316642761,11.2937496829033,-0.492264294996858,12.7533712211931
10.1598723335192,5.20552641928196,10.7873258435726,-0.674003870487213,11.9965905729371
10.1698603334371,4.20347825556994,10.0315790677071,-0.727373673543334,10.9009577789143
10.1798493333627,3.29203328311443,9.06050740599632,-0.719028600454331,9.66681331771327
10.1898373335134,2.96475877583027,8.32605560481548,-0.71571681059897,8.86708785827207
10.1998253334314,3.13907362997532,7.76936617612839,-0.532469676733017,8.39644912982949
10.2098133333493,3.38047651290894,7.10176559150219,-0.219455358982086,7.86834522790907
10.2198023335077,3.57626994431019,6.51263756453991,0.0153561039268971,7.42996571806092
10.2297903334256,3.75406623065472,6.11609050869942,0.270919115915895,7.18143255500697
10.2397783333436,3.72214014083147,5.87589098274708,0.291330430135131,6.96170205399801
10.2497663334943,3.50738974392414,5.83099606096745,0.162060113400221,6.80650874965701
10.2597553334199,3.28595802605152,6.0728661364317,0.218655459880829,6.90833072964279
10.2697433333378,3.24852853685617,6.69254586517811,0.351038614958525,7.44757248514397
10.2797313334886,3.29688734918833,7.58088761150837,0.4278748293221,8.2778258039854
10.2897193334065,3.24469305574894,8.46754535973072,0.479820323735476,9.08061589255885
10.2997083333321,2.57488602429628,9.07168728232384,1.0097628338635,9.48394270159012
10.3096963334829,0.799711990356445,8.89313202738762,1.03191311001778,8.98844709561634
10.3196843334008,-1.56191292285919,6.84908342957497,-1.26016706675291,7.13705379270757
10.3296723335516,-4.12643914282322,3.02188139498234,-5.16618108987808,7.26971073827411
10.3396613334771,-6.16234023034573,-1.45716005444527,-7.98471328139305,10.1908487735253
10.3496493333951,-8.60619161367417,-9.15395292878151,-8.33254426002502,15.0762290430631
10.3596373335458,-12.9855970931053,-21.455925142765,-0.746622488200665,25.0906337252826
10.3696253334638,-11.232861456871,-28.4927872252464,6.10393590152264,31.2293793384102
10.3796143333893,-2.36898568063974,-18.4081552004814,5.77405002772808,19.4373847202445
10.3896023335401,0.227402894496918,-5.24417826890945,5.009556401968,7.25594743207435
10.399590333458,-2.25653758406639,-0.566182383298874,2.35332069754601,3.30917552646586
10.409578333376,-3.99841698735952,-1.73193358182907,0.130652525424957,4.35935802831935
10.4195673335344,-5.5180560028553,-7.99039735972881,-1.23201301574707,9.78842418819183
10.4295553334523,-5.32707658410072,-15.2376978099346,-1.5073513841629,16.2122573281791
10.4395433333702,-4.24619362771511,-20.2248967981339,-2.01042856961489,20.7633916750789
10.4495317083783,-3.26473584920168,-19.5610191357136,-2.48710148334503,19.9869368233672
10.4595207085367,-2.86974736869335,-13.9464840745926,-2.13346100360155,14.3976221598178
10.4695087084547,-3.30671096384525,-10.1157251787186,-2.4439664272964,10.9194874049805
10.4794967083726,-3.79715348571539,-8.55961503267288,-2.68194941997528,9.74054602129398
10.4894847085234,-3.54350857973099,-7.71141559123993,-2.54384841889143,8.85965847274836
10.4994737084489,-2.79129761517048,-6.86641457676888,-2.20493912190199,7.7330943384789
10.5094617083669,-2.01035255581141,-5.53015038371086,-1.70286926552653,6.12567093472949
10.5194497085176,-1.48742641210556,-3.50435153067112,-1.23162359118462,4.00122651849514
10.5294387084432,-1.19744398444891,-1.0838241058588,-0.824978978633881,1.81359783400877
10.5394267083611,-0.678447169661522,1.15338375270367,-0.752267828732729,1.53508681486383
10.5494147085119,0.144161640107632,2.97702214121819,-0.914283649474383,3.11758849104208
10.5594027084298,1.0807367759943,4.47038230776787,-0.934166229218245,4.69307750845885
10.5693917083554,2.20586473613977,5.96550599455834,-0.72312040887773,6.40125020062424
10.5793797085062,2.98034043610096,7.09065880537033,-0.41753695204854,7.70287014790982
10.5893677084241,3.34184746742249,7.84289081990719,-0.412880083322525,8.53518311881514
10.599355708342,3.9328088888526,8.72353236794472,-0.590492913275957,9.58726679567468
10.6093437084928,4.49733797192574,9.59547501325607,-0.80877882912755,10.6279496027311
10.6193327084184,5.19425123333931,10.2805722212791,-0.866813540831208,11.5508344627802
10.6293207083363,5.97312433183193,10.8466131019592,-0.298078116998076,12.3861245202424
10.6393087084871,6.66356297135353,10.8988018405437,0.50925031028688,12.7846114102526
10.6492977084126,6.82462920427322,10.642319573164,1.28923372194171,12.708133350849
10.6592857083306,6.69394159555435,9.96937638759613,1.83713303133845,12.1479371671526
10.6692737084813,5.55907655954361,8.83203388631344,1.30955528140068,10.5177511759359
10.6792617083993,4.07815108180046,7.90544608712196,0.148742787390947,8.89660151401551
10.6892507083248,3.32177923858166,7.47115759313107,-0.124543354511261,8.17728097465319
10.6992387084756,2.98182592123747,7.30820212483406,0.307275933399797,7.89908365706045
10.7092267083935,2.95399726778269,7.4046718275547,1.00161766245961,8.03483059395784
10.7192147085443,2.99501694738865,7.62496801614761,1.71124364778399,8.36890784896693
10.7292037084699,2.91709139674902,7.77580279111862,1.95898915171623,8.53288753939117
10.7391917083878,2.8214020049572,7.83347972631455,1.6896723921597,8.49580524076348
10.7491797085386,2.85629438728094,7.9507397890091,1.06215607881546,8.51474346971825
10.7591677084565,2.80250000327826,8.18857177734375,-0.0425384938716888,8.65497103083229
10.7691567083821,2.76013370990753,8.46430541753769,-1.3507826833427,9.00485525455819
10.7791447085328,1.76559541761875,7.82317050039768,-2.96635681986809,8.55094127215167
10.7891327084508,-0.0986977842450142,5.94226623594761,-5.16847436785698,7.87612827236152
10.7991207083687,-1.43266782224178,3.37451644599438,-6.73704259157181,7.66991794048842
10.8091097085271,-2.81217509865761,-0.926977808475494,-7.48918514370918,8.05329192067879
10.819097708445,-6.51373274803162,-8.61470808327198,-6.27226788461208,12.4893256058567
10.829085708363,-11.7316102409363,-19.2686408114433,1.52990760326386,22.6108782412401
10.8390737085138,-8.57020375549793,-24.9505790662766,6.96722291350365,27.2859301340401
10.8490627084393,0.201317003667355,-19.4510634148121,4.89081787079573,20.0575296571712
10.8590507083572,2.5682096734643,-8.16027476191521,3.37388699322939,9.19613497943067
10.869038708508,0.487916232347488,-2.3864843505621,1.53264234602451,2.87790937419744
10.879026708426,-6.19749193668366,-3.25524844944477,-4.55890564441681,8.35399122860247
10.8890157083515,-13.8357319629192,-11.3557629132271,-13.5883514714241,22.4727418443349
10.8990037085023,-11.8962350893021,-19.8367375731468,-9.11630855441094,24.8620926010878
10.9089917084202,-0.78063924998045,-19.621066532135,1.59783119916916,19.7014901476542
10.9189807083458,1.8931354701519,-14.8051172876358,3.77588979363442,15.3958696910136
10.9289687084965,2.15413061857224,-10.8810157799721,3.55201452434063,11.6470421269522
10.9389567084145,1.19120032757521,-9.93616654157639,1.96435952693224,10.1982877049732
10.9489447083324,-2.17270809978247,-10.7072178196907,-0.90430318325758,10.9627979171566
10.9589337084908,-5.05122833848,-10.3806543338299,-2.64044822216034,11.8425022246075
10.9689217084087,-6.24772770524025,-8.70164097726345,-2.70291753530502,11.0480052669555
10.9789097083267,-5.6316323196888,-6.03634735107422,-2.26893967464566,8.56159209342312
10.9888977084775,-3.61228616148233,-2.70549031019211,-1.2508176612854,4.68325036195628
10.998886708403,-1.10146661728621,-0.0873696810007095,0.00330623500049114,1.1049312654387
11.0088747083209,0.716009683012962,1.51373946726322,-0.31636937700212,1.70416156030565
11.0188627084717,1.83128128409386,2.98843239784241,-1.24093235850334,3.71809527262646
11.0288507083897,2.01708211630583,4.20031052649021,-1.55038689136505,4.91069529657276
11.038839708548,1.93197560012341,5.52198650121689,-1.26726003170013,5.98588444818628
11.048827708466,2.4483677726984,6.97989850759506,-0.826174149513245,7.4428523868232
11.0588157083839,3.72744648903608,8.51936396956444,-0.413354840688407,9.30829103535449
11.0688037085347,4.77628407239914,9.81045959115028,-0.0739042011648417,10.9116208127297
11.0787927084602,5.1727896130085,10.8680992805958,0.0498334801197052,12.0364370861595
11.0887807083782,5.2229142844677,11.5127314174175,-0.408031608648598,12.6486484695459
11.098768708529,5.1981378775835,11.7909477853775,-1.03924902677536,12.9277656852033
11.1087567084469,4.53468910843134,11.1393177008629,-2.2038857460022,12.2272203109421
11.1187457083724,3.63853314310312,10.1102849292755,-2.75091498970985,11.0916327952744
11.1287337085232,2.61493711262941,8.88323912322521,-2.64204334259033,9.62965349571477
11.1387217084412,1.84764033168554,7.73103416919708,-2.48285757422447,8.32749937582992
11.1487097083591,1.62316835403442,6.89320593416691,-2.33481893777847,7.45669786357083
11.1586987085175,1.90847680985928,6.49201034188271,-1.71929307103157,6.98172261529917
11.1686867084354,2.46778462171555,6.54473234653473,-0.719886971712113,7.03148061783538
11.1786747083534,3.1405444970727,6.84475824415684,0.411060429811478,7.54206243914776
11.1886627085041,3.81473752498627,6.96484309673309,1.07032580852509,8.01291826259596
11.1986517084297,4.70027290016413,6.88192139267922,1.48285739779472,8.46476659177485
11.2086397083476,5.49244753718376,7.07080633878708,1.55093638345599,9.08673130971061
11.2186277084984,6.18243418693543,7.51403639495373,1.86493683412671,9.90763467310739
11.2286157084163,6.57825267970562,8.11733807265759,2.44788552358747,10.7311103451814
11.2386047083419,6.39279946446419,8.57797178149223,2.75805911779404,11.0479126976175
11.2485927084927,5.7368061876297,9.02715664207935,3.25301305890083,11.1795615404381
11.2585807084106,4.32567746132612,9.23695298552513,3.86532880425453,10.9074998382409
11.2685687083285,1.86783105969429,8.47687459230423,2.89839200109243,9.15133170162727
11.2785577084869,-0.667939138412476,6.92912245631218,0.556122541129589,6.98341986335816
11.2885457084049,-2.75012064546347,5.23644064843655,-2.75449348568916,6.52462325287116
11.2985337083228,-4.08618310958147,2.07352675080299,-8.40512223958969,9.57300817161302
11.3085227084812,-3.56447289437056,-5.72410778939724,-11.9562134885788,13.7266863439001
11.3185107083991,-7.35396535813809,-19.9466909551621,-9.21031190156937,23.1685375428323
11.3284987085499,-10.2981150376797,-30.373373401165,4.03021911621094,32.3239176341692
11.3384867084678,-2.11159066289663,-25.2012094402313,8.75034769892693,26.7605746804913
11.3484757083934,2.20634654670954,-10.9478061854839,5.3599426138401,12.3875506127223
11.3584637085442,-2.52463417589664,-2.9625508671999,1.9658020350337,4.3606035137117
11.3684517084621,-8.34130923628807,-0.541055728197098,-0.931717269122601,8.41060509987128
11.37843970838,-11.119647667408,-4.55562360227108,-2.58514613360167,12.2915927033455
11.3884287085384,-8.25560893535614,-12.4109292304516,-2.61521017760038,15.1335907018075
11.3984167084564,-3.26197537869215,-19.457407643795,-2.69481797218323,19.9121379939776
11.4084047083743,-0.034406478703022,-22.5637199091911,-3.07160699397326,22.77185564401
11.4183927085251,-1.11619809240103,-19.1663519597054,-3.92728268533945,19.5963898439317
11.4283817084506,-3.14939133435488,-13.268506436348,-3.51556415140629,14.0830082060251
11.4383697083686,-5.12078096866608,-9.83833326816559,-3.1122299399972,11.5195995774142
11.4483581250533,-6.07943431377411,-8.26325358510018,-3.3382669249177,10.7881836955608
11.4583471252117,-6.30756811022759,-7.35023308038712,-3.41525955229998,10.2701187729623
11.4683351251297,-5.36918706178665,-6.59083062529564,-3.15798966497183,9.06863367657229
11.4783231250476,-3.75909395903349,-5.31473486602306,-2.50735623836517,6.97596082235501
11.4883111251984,-2.23867872565985,-3.18561220407486,-1.62632365778089,4.21956587711704
11.4983001251239,-0.904992277622223,-0.798117454648018,-0.804370028525591,1.45017710530816
11.5082881250419,0.244004893898964,1.47514258146286,-0.201463330239058,1.50869861049932
11.5182761251926,1.30066400527954,3.64987527966499,0.44722443535924,3.90042640070568
11.5282641251106,2.16433634877205,5.52999133944512,1.22090929940343,6.06265416812832
11.5382531250361,2.88505567163229,7.39007717728615,1.62004959538579,8.09699620885257
11.5482411251869,3.397455072999,9.24194241464138,1.73239317297936,9.99786910668366
11.5582291251048,3.69452227950096,10.4704184496403,1.27993796467781,11.1766452291249
11.5682171250228,4.50217098802328,11.3142044126987,0.807077216282487,12.2037755932651
11.5782061251812,5.20167602777481,12.0198896670342,0.677158881872892,13.1146378240842
11.5881941250991,5.37577687382698,12.3841092216969,0.548829016685486,13.5117116421883
11.598182125017,5.57610599040985,12.3653291344643,0.35828448459506,13.5691816404607
11.6081701251678,5.5483457493782,11.5557692635059,0.216241729259491,12.8205578783259
11.6181591250934,5.1404673743248,10.1970190179348,0.116902213096619,11.4200379949477
11.6281471250113,4.34586263448,8.76169889867306,-0.186603362560272,9.78206064404106
11.6381351251621,3.67296330302954,7.72562900304794,-0.491542675495148,8.56840808551799
11.64812312508,3.38290983170271,7.1686308413744,-0.545671520233154,7.94550844674704
11.6581121250056,3.30328332602978,6.82210262238979,-0.389712391644716,7.58977210926952
11.6681001251563,3.28701432555914,6.44708092153072,-0.271553027182818,7.24175784128195
11.6780881250743,3.25777912437916,5.98765407800675,-0.18630997851491,6.81907893994531
11.6880771249998,3.28612437933683,5.4796146529913,-0.0328495113551617,6.38951244400894
11.6980651251506,3.40069501519203,5.24663936197758,0.284595826417208,6.2588294405119
11.7080531250685,3.54036248534918,5.51256371319294,0.748158405572176,6.59410844766051
11.7180411252193,3.70900904864073,6.36921121180058,1.33474625587463,7.49033691839001
11.7280301251449,3.77675459682941,7.65482857704163,2.1522770512104,8.80298655762533
11.7380181250628,3.14500826150179,8.61361991643906,2.63625576853752,9.54124569995645
11.7480061252136,1.60025984019041,8.48127169847489,2.50367541611195,8.98672308289961
11.7579941251315,-0.36155994862318,6.7161142373085,1.19322726488113,6.83086431944612
11.7679831250571,-2.97974197357893,3.90049629807472,-1.68061841726303,5.1881800146917
11.7779711252078,-4.94598313450813,0.875137563943863,-4.91075599908829,7.02453837666548
11.7879591251258,-5.64673567771912,-4.05215085268021,-6.92727122783661,9.81288117786595
11.7979471250437,-7.41717200517654,-12.597014529705,-4.84777271568775,15.4013024098269
11.8079361252021,-9.59362086117268,-21.9924399232864,0.721812752187252,24.0047076353059
11.81792412512,-6.55011529326439,-22.4219600129128,3.01738927155733,23.5531938214719
11.827912125038,-0.00684153467416763,-11.1497690141201,2.49535102754831,11.4255928785125
11.8379001251888,0.0362129759788513,-3.04577311813831,1.80573392182589,3.54100554408432
11.8478891251143,-2.26105280399323,-0.991701807975769,0.381866743862629,2.49833033613577
11.8578771250322,-4.75574309617281,-3.51609273970127,0.170114799141884,5.9168352686096
11.867865125183,-7.1196586561203,-10.8863390851021,-0.482065800726414,13.01669333939
11.8778541251086,-7.02815674781799,-19.154725356102,-3.16323403269053,20.6471436350205
11.8878421250265,-4.7249756321311,-24.9953593826294,-6.3296740937233,26.2137017516371
11.8978301251773,-3.57582087814808,-21.6487125205994,-6.08231699109078,22.7694494604562
11.9078181250952,-2.5582863637805,-12.7713621282578,-3.30770440578461,13.4385054290367
11.9178071250208,-2.04159919917583,-7.80956695318222,-1.19330474048853,8.1597450628058
11.9277951251715,-3.04494690656662,-6.31101445913315,-0.343122800588608,7.01557826721939
11.9377831250895,-3.96543196678162,-6.55327688276768,-0.786446996927261,7.69990827636061
11.9477711250074,-3.67772352129221,-7.05508083701134,-1.22430390045047,8.04976620508253
11.9577601251658,-2.42672342687845,-6.87742020606995,-1.48724792584777,7.44310430360601
11.9677481250837,-0.71261800557375,-5.34678871750832,-1.53152128860354,5.60727487011186
11.9777361250017,0.987981224656105,-2.84996974647045,-0.698222014456987,3.09611828545716
11.9877241251525,2.28827773243189,-0.364879120588303,-0.0412510831654072,2.31755332306449
11.997713125078,3.18538825571537,1.66946426868439,0.207572647333145,3.60234585901801
12.0077011249959,3.50091658383608,3.30055033743382,0.150165926590562,4.81379260691835
12.0176891251467,3.81608589291573,5.28133264660835,0.414249355047941,6.52890408831369
12.0276781250723,3.55288956016302,6.93757460653782,0.0799957573413849,7.79482937396236
12.0376661249902,2.84980807095766,8.12140364170075,-1.08942391119897,8.67556612625468
12.047654125141,2.41286143273115,9.21665788471699,-2.14415863081813,9.76555677325103
12.0576421250589,2.4590061968565,10.2593842506409,-1.80923845052719,10.7039721808935
12.0676311252173,3.02104348897934,10.8139716053009,-0.787646845579147,11.2556240695889
12.0776191251352,3.76890178620815,10.2992341947556,-0.362903894595802,10.9731738758309
12.0876071250532,4.20137881278992,9.63261828124523,-0.199194756746292,10.5108799551634
12.097595125204,4.15255982458592,9.46553409397602,-0.287550863027573,10.3403469129336
12.1075841251295,3.89757093608379,9.28472824573517,-0.467289667502046,10.080456211517
12.1175721250474,3.28527244001627,8.96074513614178,-0.947696832418442,9.59093831104105
12.1275601251982,1.84244040280581,8.54263939619064,-1.69810860872269,8.90251915685992
12.1375481251162,0.497783116400242,8.43597741186619,-2.08575093984604,8.70424378723151
12.1475371250417,0.0338743820786476,8.63636967837811,-1.75184569001198,8.81232046721994
12.1575251251925,0.0637369894981384,8.87816549420357,-1.15751948833466,8.95353205791836
12.1675131251104,1.08255818367004,9.00554650247097,-0.114279152154922,9.07110025045559
12.1775011250284,2.42262043565512,8.73772297561169,0.85125388070941,9.10722382195634
12.1874901251867,3.1853575578332,8.72114436507225,1.17834376215935,9.35913221562215
12.1974781251047,3.71421160876751,8.53126071453095,1.33258527114987,9.3996574809345
12.2074661250226,4.19221593350172,8.22462103128433,1.47651331499219,9.34875163381184
12.217455125181,4.75566181987524,7.81819919764996,1.57955177977681,9.28630937801178
12.2274431250989,5.59639232039452,7.5446144092083,1.79891109824181,9.56435542662347
12.2374311250169,6.06002155780792,7.26816682398319,2.19862939149141,9.7151470119333
12.2474191251677,6.80964337527752,6.98542471110821,2.84584453582764,10.1619994299903
12.2574081250932,7.16418578803539,7.08121906042099,2.887967877388,10.4790066250567
12.2673961250111,6.26653995215893,6.98765542387962,1.753181194067,9.54832422962839
12.2773841251619,4.30751922547817,5.46312024235725,-0.26439384251833,6.96206210574707
12.2873721250799,0.292198814749718,1.94755141317844,-5.73801773071289,6.06656279389656
12.2973611250054,-2.26233305186033,-2.10229446709156,-11.8078170025349,12.2050127090985
12.3073491251562,-5.09922228455544,-9.02920667588711,-15.8304148578644,18.9243408253837
12.3173371250741,-13.3108519721031,-21.3097517681122,-4.45293597042561,25.5169147703736
12.3273251249921,-12.0902363491058,-29.1935456156731,6.79887104988098,32.3212247315063
12.3373141251504,-0.573645476996899,-23.6603394770622,3.84556843131781,23.977679826519
12.3473021250684,0.688047420680523,-10.96771946311,-0.078786553144455,10.9895626298567
12.3572901252192,-2.98156718194485,-4.55367764890194,-0.643662668466568,5.48087808853081
12.3672791251447,-6.56999348759651,-4.85054078757763,-0.791342578232288,8.20480246167683
12.3772671250626,-8.68378358066082,-10.1507079005241,-1.02990956157446,13.397973050523
12.3872551252134,-8.58239812374115,-16.1969487404823,-3.10192773073912,18.590875764819
12.3972431251314,-7.83130807042122,-20.3242105865479,-5.62157861709595,22.4945564127942
12.4072321250569,-6.91827587127686,-20.2805833411217,-5.20503934621811,22.0512366157309
12.4172201252077,-5.37185690045357,-16.0383757603169,-2.90816065192223,17.1622767127633
12.4272081251256,-4.94161818802357,-12.0163789987564,-2.16555607795715,13.1720380991226
12.4371961250436,-5.37190426290035,-9.82605411529541,-3.00632019996643,11.5951134548657
12.4471847084351,-5.22397613883019,-8.70822494208813,-3.46945768654347,10.7312741545349
12.457172708353,-4.33676085859537,-7.85189670145512,-3.13471219182014,9.50190491851568
12.4671607085038,-2.74326420038939,-6.40557855427265,-2.2978374914825,7.33736957126723
12.4771497084294,-0.787968442440033,-3.9784513771534,-1.05573685929179,4.1908889203512
12.4871377083473,0.742869452834129,-1.12010724842548,-0.0735695211589336,1.3460712263372
12.4971257084981,1.49886181175709,1.51624032139778,0.153851938247681,2.13757850426101
12.507113708416,2.06059651046991,3.75046609997749,-0.185661960840225,4.28328429009145
12.5171027083416,2.85934575676918,5.54384924054146,-0.246959491968155,6.24268464278624
12.5270907084923,3.76031544238329,7.12785352885723,-0.400983338356018,8.06889433520528
12.5370787084103,3.59070116490126,8.40385163962841,-0.624895372018218,9.16015018776866
12.5470667083282,3.22946778327227,9.65262803792954,-0.835666519403458,10.2127875104434
12.5570557084866,3.11645104497671,10.732823946476,-0.850656368359923,11.2084518662845
12.5670437084045,3.30069184005261,11.6386184620857,-0.658263165950775,12.1154990291213
12.5770317083225,3.5914811834693,12.0925354743004,-0.246444863900542,12.6170078211662
12.5870207084809,3.96977206259966,12.1089100170136,0.290205572023988,12.7463332493373
12.5970087083988,4.30221141546965,11.7318546545506,0.416735810413957,12.5027639118148
12.6069967085496,4.6430722206831,10.9413917899132,-0.101120504960418,11.8862272947888
12.6169847084675,4.75289053201675,10.1117081415653,-0.503945643156767,11.1843896195005
12.6269737083931,4.16914515942335,9.02025809705257,-0.994343580007553,9.98676857911947
12.6369617085438,3.5129191634059,8.04619499981403,-1.84084265112877,8.97053826087775
12.6469497084618,3.14685948997736,7.47706795871258,-2.29361594796181,8.43029916584291
12.6569377083797,3.16722417265177,7.07368784666061,-1.92313051700592,7.98541167988622
12.6669267085381,3.32525248467922,6.65392500579357,-1.11604979239404,7.52180757588847
12.676914708456,3.72801308423281,6.42088656485081,-0.433989701271057,7.43735254614853
12.686902708374,4.0822169432044,6.36917262017727,0.0397211591899395,7.56521201338656
12.6968907085247,4.20285377293825,6.64642419755459,0.329123396873474,7.87065795603582
12.7068797084503,4.26251379132271,7.25109529316425,0.876606384515762,8.45670417628161
12.7168677083682,4.52038038700819,7.97407661139965,1.98753993630409,9.37923513118863
12.726855708519,4.60359796017408,8.55929226636887,3.54837200134993,10.346281561025
12.7368447084446,4.38424375802279,9.00634230852127,5.17151258111,11.2729915055677
12.7468327083625,3.6603032040596,9.23522805690766,6.03849444866181,11.6254321216574
12.7568207085133,2.40097082734108,9.214345895648,5.2467399340868,10.8718494808533
12.7668087084312,0.403191831707954,7.85890868246555,1.70587488055229,8.05201952559653
12.7767977083568,-2.53071294128895,5.21856571018696,-3.28551773071289,6.66577548538617
12.7867857085075,-3.59431912958622,2.30224819242954,-6.72707659721375,7.96699669195585
12.7967737084255,-3.04428617119789,-4.04670709490776,-6.64839529395104,8.35731276121421
12.8067617083434,-6.07681593060494,-14.5511633563042,-2.47118126928806,15.9615407696746
12.8167507085018,-10.0280075883865,-24.2900799250603,7.13096483230591,27.2290208857781
12.8267387084197,-9.38065766572952,-27.4643649029732,6.36136600255966,29.7111941056531
12.8367267083377,-5.45941544651985,-16.2446316146851,-0.0511394557356834,17.137557835306
12.846715708496,-6.39226502895355,-4.66464961588383,-0.678214742839337,7.94229082045932
12.856703708414,-8.72219803333283,-3.83122901201248,-0.0884607714414597,9.52695542045018
12.8666917083319,-10.0141216206551,-9.45827068269253,-0.803181435763836,13.7980656817942
12.8766797084827,-10.09288595438,-18.0307864272594,-2.65213563680649,20.8328929702426
12.8866687084083,-8.27063394069672,-25.895694937706,-4.69398889750242,27.586662245687
12.8966567083262,-1.87760643482208,-23.534039618969,-2.86950237035751,23.7825665260243
12.906644708477,-0.0353066575527191,-13.4277845907211,0.406453700959683,13.4339811740935
12.9166327083949,-2.34310268819332,-7.75303080976009,1.9203715083003,8.32390795686735
12.9266217083205,-5.19405710577965,-5.63851858556271,2.46090829610825,8.05153343778007
12.9366097084712,-7.64622264504433,-5.18841044962406,1.72939208954573,9.40080425978225
12.9465977083892,-7.86850805640221,-4.65785164296627,0.200582885742188,9.1459955420721
12.9565857085399,-5.87412804722786,-3.55698407292366,-1.1115413698554,6.9565106358836
12.9665747084655,-2.93836707562208,-2.38269243121147,-1.77780835077167,4.17993143782596
12.9765627083834,0.0693713665008545,-0.968753240704537,-1.881235216856,2.11715402581035
12.9865507085342,2.939293859303,0.577314312458038,-1.73580122262239,3.46204362929796
12.9965397084598,4.98107110619545,1.99939107298851,-1.81143013313413,5.66479594998334
13.0065277083777,6.27851446509361,3.21324439108372,-1.838550542593,7.28868654168155
13.0165157085285,7.09879286706448,4.44734252393246,-1.41937768578529,8.49625498143556
13.0265037084464,7.50593917071819,5.91628237903118,-0.86596671782434,9.59642737581732
13.036492708372,7.60621482610703,7.51569291114807,-0.600916013717651,10.7098666644881
13.0464807085227,7.78127110719681,8.93283345222473,-0.481846895590425,11.8564695402835
13.0564687084407,7.8323868817091,9.90797828435898,-0.131669904403389,12.6305841081014
13.0664567083586,7.37976034998894,10.3785165917873,-0.166604752130806,12.7358637953107
13.076445708517,6.71567628085613,10.5949676513672,-0.775759456157684,12.5680328682172
13.0864337084349,5.27844061374664,9.85379096746445,-2.44804091334343,11.4434276358413
13.0964217083529,4.0361017075181,8.57014060556889,-4.08191551923752,10.3150114541305
13.1064107085112,3.23513841301203,7.62149243116379,-3.88198869109154,9.14456689118711
13.1163987084292,2.49879299104214,6.9554817044735,-2.98823827028275,7.97196714201265
13.1263867083471,1.93134351611137,6.42873352825642,-2.33330333948135,7.10654677241967
13.1363747084979,1.40744819641113,6.05586769580841,-1.9888672542572,6.52763639687241
13.1463637084235,1.08766631126404,5.91695539355278,-1.67428237438202,6.24472582289394
13.1563517083414,1.07974362641573,6.20812860667706,-1.05116689480841,6.38840034254026
13.1663397084922,1.2711791279912,6.81104904592037,-0.146578075066209,6.9302071118736
13.1763277084101,1.5358594840765,7.63508486866951,0.845937665328383,7.83383659774922
13.1863167083357,1.78003073126078,8.68971733510494,1.62090314269066,9.01704074329492
13.1963047084864,2.08053990125656,9.75787441134453,1.65565431475639,10.1136516905747
13.2062927084044,2.5468234822154,10.6789757680893,1.17411154747009,11.0410765431141
13.2162817083299,3.53112885475159,11.5910946321487,0.807854822874069,12.1439275020533
13.2262697084807,4.02162750989199,12.0101762723923,1.05249048516154,12.7092705590687
13.2362577083986,2.98773336321116,10.921244623661,1.51947280839086,11.4240506124111
13.2462457085494,0.861883095502854,8.47483391404152,0.412097872048616,8.52850965861263
13.2562347084749,-1.64292258739471,5.04546649217606,-2.60822977155447,5.91259581681906
13.2662227083929,-4.00011384934187,0.668108707666397,-7.0820938038826,8.16108649016469
13.2762107085437,-6.51976707458496,-7.78474493801594,-12.5103658103943,16.1126927968819
13.2861997084692,-12.1216382360458,-24.8288727807999,-7.95899137973786,28.7533055642904
13.2961877083872,-11.4026529049873,-36.1548031997681,7.16337068617344,38.5811374543715
13.3061757085379,-0.0643103089928627,-26.6536671638489,3.95749378681183,26.9459434084193
13.3161637084559,2.83996399104595,-10.1798246955872,-0.565273141264916,10.5836553244878
13.3261527083814,0.109130094051361,-3.48058259904385,1.86682416915894,3.95112605275388
13.3361407085322,-2.13022603154182,-4.01907256901264,1.5375975689292,4.80156365618798
13.3461287084501,-4.62478768497706,-10.3589529776573,-1.50102966696024,11.4433237298228
13.3561167083681,-6.34177899956703,-19.2984008002281,-4.72285104632378,20.8554970291134
13.3661057085264,-3.18730701953173,-25.3393791460991,-3.51892133027315,25.780338804507
13.3760937084444,1.04747605919838,-20.2460286355019,-0.791615935564041,20.2885568090388
13.3860817083623,-0.76646647632122,-11.7195825183392,-0.659817355871201,11.7631392156428
13.3960707085207,-4.42124347686768,-8.00962066590786,-1.18749348521233,9.22559254849817
13.4060587084387,-6.82285165071488,-7.11298990666866,-0.658318422138691,9.87822419288812
13.4160467083566,-7.47120554029942,-6.57239844739437,0.0305093094706535,9.95069165408501
13.4260347085074,-7.06398556172848,-4.75205145657063,-0.0692310333251953,8.5139108521395
13.4360237084329,-6.23768803596497,-1.89446278810501,-0.989215718060732,6.59365520985087
13.4460113334935,-4.61607416421175,1.02225467920303,-1.79280909016728,5.05641273557076
13.4559993334115,-2.52918184787035,3.28603287041187,-1.93895322874188,4.57758806231762
13.4659873333294,-0.418832548856735,4.71240850389004,-1.30769104287028,4.90838776739574
13.4759763334878,1.41821204334497,5.83696255981922,-1.60071504592896,6.21640941242478
13.4859643334057,2.21247559815645,6.62690911531448,-2.0333236348629,7.27635744718249
13.4959523333237,3.53705734670162,7.28447236955166,-1.54403681516647,8.24368619388238
13.505941333482,5.26008737325668,7.98980562150478,-0.621550691574812,9.58602307038331
13.5159293334,6.27735671639443,8.82327826559544,-0.0875736757367849,10.8288095303996
13.5259173335508,7.17039260745049,9.68625186681748,0.0882953683286905,12.0517966065012
13.5359053334687,7.93022190928459,10.3259676647186,0.147794259376824,13.0205941065075
13.5458943333942,8.0511505150795,10.3822436070442,0.600423678159714,13.1519015935252
13.555882333545,7.6636637198925,9.76300709724426,0.361871312856674,12.4168836685985
13.565870333463,6.94085197091103,8.67056770384312,-0.460737204551697,11.1160446724851
13.5758593333885,5.17261361181736,7.32683310806751,-1.97181209564209,9.18294385865192
13.5858473335393,3.26225370615721,6.46840981006622,-3.16905288934708,7.90730807100472
13.5958353334572,2.23269936293364,6.22681104540825,-3.36047201871872,7.419628995378
13.6058233333752,1.9510299217701,6.27512775778771,-2.98616367816925,7.21809667745018
13.6158123335335,2.19704421132803,6.30276696145535,-2.38673987388611,7.08861071455761
13.6258003334515,2.80566860944033,6.33621654331684,-1.62382207274437,7.11731793260162
13.6357883333694,3.25737186580896,6.4777665245533,-0.586018404588103,7.27429365569628
13.6457763335202,3.41933652341366,6.81264592051506,0.58912685751915,7.64533041489454
13.6557653334457,3.23068488121033,7.51819902777672,1.46493334293365,8.3130422302658
13.6657533333637,2.79798624515533,8.38129951357842,1.96262144207954,9.05134197173539
13.6757413335145,2.49136498063803,9.3163651907444,2.57760702610016,9.98226516453377
13.68573033344,2.48529790967703,10.1105796289444,3.44299260377884,10.966071502719
13.6957183333579,2.62184910625219,10.6445859539509,4.63657771825791,11.9029053514026
13.7057063335087,2.13133086293936,10.6361951994896,4.7739276444912,11.8516498734902
13.7156943334267,0.881812160611153,9.73564739048481,3.34004301667213,10.3303586652001
13.7256833333522,-0.823789654970169,8.26150292873383,1.10249251127243,8.37535371041279
13.735671333503,-3.58891776412725,5.77880556821823,-3.15724969983101,7.49954333143167
13.7456593334209,-6.32815323293209,1.28810184717178,-9.18783871293068,11.2303655293576
13.7556483333465,-8.45169414281845,-9.64012201309204,-15.4750550043583,20.095780992511
13.7656363334972,-11.3311122214794,-27.884470975399,-2.59652042984962,30.21058993294
13.7756243334152,-8.80395789563656,-37.4440347290039,6.81467724323273,39.0641170045405
13.7856123333331,-0.678079379796982,-22.7370196866989,-2.7502984008193,22.9127911257487
13.7956013334915,-0.435383385121822,-5.6984741806984,-1.65337974786758,5.94943957619414
13.8055893334094,-2.88840817272663,-1.59077594876289,3.13975629240274,4.55319003195772
13.8155773333274,-2.35479887366295,-3.41025872111321,3.0485023060441,5.14473600783259
13.8255653334782,-3.20467325001955,-10.4745524311066,1.44019114226103,11.0480916812651
