Time (s),Linear Acceleration x (m/s^2),Linear Acceleration y (m/s^2),Linear Acceleration z (m/s^2),Absolute acceleration (m/s^2)
0.0163605001289397,-0.249936674907804,-0.955260790586472,0.936890008449555,1.36115921457722
0.0263485000468791,-0.170030087605119,-0.799365542829037,-0.52320534825325,0.970381027325952
0.036336500197649,0.106136173456907,-0.5681756991148,-1.61223873853683,1.71271779999494
0.0463245001155883,0.756730716079474,-0.110581665337086,-2.1292068618536,2.26238624950103
0.0563125000335276,0.79839183524251,0.0946675908565521,-2.02089537799358,2.17495048314584
0.0663005001842976,1.09718236237764,0.100261622071266,-2.04706926941872,2.32472667704645
0.0762885001022369,1.32774684637785,-0.117077044844627,-1.91616239011288,2.33415874091266
0.0862765000201762,1.51028347045183,-0.402891284823418,-1.72844747185707,2.33040945146466
0.0962645001709461,1.38125091612339,-0.719665362238884,-1.57537145912647,2.21530304047288
0.106252500088885,0.872579187825322,-0.91076611071825,-1.51545737922192,1.97167452073026
0.116240500006825,0.328956020325422,-1.00373742431402,-1.46857089579105,1.80897798666579
0.126228500157595,-0.0249432718008757,-1.05984613627195,-1.40412346959114,1.75939157586803
0.136216500075534,-0.0412301793694496,-0.9421554261446,-1.22538461208344,1.54626136931485
0.146204499993473,0.242947278767824,-0.671243984699249,-1.16328016519547,1.36484893302988
0.156192500144243,0.525047586634755,-0.374342839121819,-1.48001331210136,1.61438747933388
0.166179500054568,0.585799134001136,-0.0973166719079018,-2.14144157588482,2.22225182707896
0.176167499972507,0.572392199411988,0.140370597839356,-3.044789031744,3.10130246549963
0.186155500123277,0.591475537866354,0.0461105579137802,-3.64907011806965,3.6969828539005
0.196143500041217,-0.305028775334358,0.240837457180023,-3.89376439869404,3.91311211532459
0.206131500191987,-1.01631873205304,0.214369743168354,-3.86107729375362,3.99834666083967
0.216119500109926,-1.46703103154898,-0.0113497379422188,-3.61902770876885,3.90508263944768
0.226107500027865,-1.47429254248738,-0.0528825107216835,-2.99748973488808,3.34085015700099
0.236095500178635,-0.934747588634491,0.438568071126938,-2.40487735211849,2.61716069170436
0.246083500096574,-0.51821021810174,0.887712001204491,-1.94221465945244,2.19744674807366
0.256071500014514,-0.148499250859022,0.878444749116898,-1.30521138489246,1.58028287468087
0.266059500165284,-0.0629616852477193,0.663145006299019,-0.687565902471542,0.957325620376925
0.276047500083223,-0.511547206230462,0.453970806598663,-0.227890552282333,0.720905084782718
0.286035500001162,-1.14563546106219,0.349383706748486,-0.159748855233192,1.20833326567335
0.296023500151932,-1.80067242577672,0.206059095561504,-0.0975298029184342,1.81504644521113
0.306011500069872,-1.79074151471257,-0.118988499641418,-0.0230093783140183,1.79483783865072
0.315999499987811,-1.25609111890197,0.0632122018933296,0.157918676733971,1.26755630640773
0.325987500138581,-0.998965438529849,0.0537689486145973,0.418279986977577,1.08433444781498
0.33597550005652,-0.438071021251381,-0.122422277033329,0.383200786113739,0.594757325345758
0.345963499974459,-0.829128893762827,-1.18973472297192,0.273623380064964,1.47573479583413
0.355951500125229,-1.04047299519181,-1.03174354076386,0.688884449601174,1.61914810086467
0.365939500043169,-1.03985494449735,-0.104467524290085,1.75901846945286,2.04605907664054
0.375927500193939,-0.795202617645264,0.0461017870903015,2.22242258906364,2.36085466351979
0.385915500111878,-0.768771229460836,0.0671140488982201,1.93760471463203,2.08562353481412
0.395903500029817,-0.738819890543819,0.437198068499565,2.02682679355145,2.20114148405344
0.405891500180587,-0.652755454257131,0.899608161449433,1.51905341684818,1.88226135551017
0.415879500098527,-0.237229359671474,0.989747376143932,0.6894089448452,1.2292934275048
0.425866500008851,-0.126507141888142,0.859133442342281,0.420714767575264,0.964943130114678
0.435854500159621,-0.540908597633243,0.442165570557117,1.28218563437462,1.46016865593544
0.445842500077561,-0.785631675794721,-0.214689878225327,2.30159213483334,2.44144121963874
0.4558304999955,-0.457673775181174,-0.87959065720439,2.48662551999092,2.67702287726496
0.46581850014627,0.35191577039659,-1.3828372657299,2.35367971658707,2.75243379960692
0.475806500064209,1.59048095673323,-1.82214924886823,1.91734995961189,3.08643620159332
0.485794499982148,3.03264553427696,-2.17550496920943,1.77470304071903,4.13271480873799
0.495782500132918,4.02525102943182,-2.61623548686504,1.89810969650745,5.16237875331223
0.505770500050858,3.74462034612894,-2.55967683166266,2.16541574478149,5.02624634960733
0.515758499968797,2.14951862722635,-2.15553482741118,3.31349139511585,4.49955397194904
0.525746500119567,0.675388710424304,-1.90356675669551,4.65889478623867,5.07789493162341
0.535734500037506,0.552128381207585,-0.810233762562275,4.30736076593399,4.41754244656893
0.545722500188276,0.1828980550915,0.634698886871338,4.02254464566708,4.07641506742589
0.555710500106216,0.64903969489038,1.16438770093024,2.88436073005199,3.17751287403955
0.565698500024155,1.18936861418188,1.43164032027125,1.54381871402264,2.41817450337932
0.575686500174925,1.00967987649143,1.82045896500349,0.585478194952011,2.16247751734384
0.585674500092864,0.421773259788752,1.85918098121882,-0.286273246407509,1.92779640398235
0.595662500010803,0.18666329652071,1.69187284559011,-0.744151747226715,1.85769715906919
0.605650500161573,0.465543981269002,1.28184722676873,-0.759793049097061,1.56113708197797
0.615638500079513,0.932401904985309,0.936530916318297,0.0177772897481918,1.32165786104839
0.625626499997452,0.468304378688335,2.97300334990025,1.78481755435467,3.4990901120076
0.635614500148222,-0.564984946623445,5.29385270476341,0.820511705875397,5.38677305156998
0.645602500066161,1.05108371816576,3.40701468586922,-1.89814068675041,4.03924053740539
0.655590499984101,1.91435282304883,2.08090345188975,-2.23494498610497,3.60414830412366
0.66557850013487,1.25468647152185,1.20061873018742,-1.8006138074398,2.50158620891619
0.67556650005281,0.124331575669348,0.575369236171246,-1.96527432382107,2.05153875579065
0.685554499970749,-0.337039357423782,0.776706997454167,-2.45949502408505,2.60115071878698
0.695542500121519,-0.316991703473032,0.699667007625103,-3.02151886761189,3.1176263292711
0.705530500039458,-0.272087206877768,0.0981154015660286,-3.5398540699482,3.5516510127967
0.715518500190228,-0.326568748354912,-1.65091953188181,-3.65515765428543,4.02397315172857
0.725506500108168,-0.858108206167817,-2.88449901670218,-2.89622063755989,4.17669465633726
0.735494500026107,-2.06522618964314,-0.928542231023312,-2.68773699402809,3.51443879421009
0.745482500176877,-2.99395801663399,1.1515643915534,-2.11304457306862,3.8412032647382
0.755470500094816,-1.74516290724278,2.48754879534245,0.715834851264954,3.12184434530475
0.765458500012755,1.11361004166305,2.18593099325895,2.41583094120026,3.44305979742487
0.775446500163525,3.60620681136847,1.40250086724758,2.74950756490231,4.74673868023568
0.785434500081465,4.49080663204193,0.3327705976367,2.4631939727068,5.13277751555845
0.795423500007018,3.527110940516,-0.336016971766949,1.80188206851482,3.97494628653751
0.805411500157788,1.82420279100537,-0.755887693762779,0.572962229847908,2.0560563574781
0.815399500075728,0.188137087225914,-0.782553043663502,-0.554040639996529,0.977110976555184
0.825387499993667,-1.07906505703926,-0.238118794262409,-1.18916052639484,1.6233252031062
0.835375500144437,-1.71854565069079,0.429255503118038,-1.07717055916786,2.07315118937413
0.845363500062376,-1.52644795194268,0.638308080732822,-0.713911702036858,1.80198514816965
0.855351499980316,-0.979955628812313,0.61735779941082,-0.309967918395996,1.19896780497604
0.865339500131086,-0.814937116652727,0.644352347552776,-0.0742251402139664,1.04154780175219
0.875327500049025,-1.05743138238788,0.794065041840077,0.0938671070337296,1.32571167789761
0.885315499966964,-1.12684521429241,0.994715170562267,0.620965531468391,1.62629536025663
0.895303500117734,-1.09850164040923,0.929484509825707,0.98795725107193,1.74548183546358
0.905291500035673,-1.32940628618002,0.683843857347965,1.41687390804291,2.05973181901438
0.915279500186443,-1.56263271510601,0.600231889486313,1.60506245076656,2.31912155661075
0.925267500104383,-1.49361861348152,0.461382444798946,1.60432570159435,2.24000698206575
0.935255500022322,-1.23380460262299,0.511193120777607,1.39848733842373,1.93374223719592
0.945243500173092,-0.943040694594383,0.655428728163242,1.28351412177086,1.7223010974124
0.955231500091031,-0.373936384543777,0.152129348516464,1.61442618191242,1.66413450634558
0.965219500008971,-0.083980927169323,-0.555348662137985,2.17136411726475,2.24283014568905
0.97520750015974,-0.0927478037774563,-1.19998489201069,2.57477112650871,2.84218441520996
0.98519550007768,-0.0810100299865007,-1.59677197605372,2.62463559687138,3.07326461353937
0.995183499995619,-0.0786098941415548,-1.64222910761833,2.44187093138695,2.94377811713424
1.00517150014639,-0.0957209667563439,-1.47652895629406,1.95074223875999,2.44840673588641
1.01515950006433,-0.0452225851267576,-1.28628657907248,0.9906598341465,1.624187536185
1.02514749998227,-0.0236148574948311,-1.10074448615313,-0.0880707621574402,1.10451461938627
1.03513650014065,-0.211427716612816,-1.0027770191431,-0.976692590117455,1.41569482766025
1.04512450005859,-0.367398758903146,-1.0766954728961,-1.58563624620438,1.95153716200221
1.05511249997653,-0.411831019744277,-1.28371117293835,-2.00712518513203,2.41786489968766
1.0651005001273,-0.451650850698352,-1.53593111246824,-2.24012035667896,2.75340009544417
1.07508850004524,-0.466445841193199,-1.69496397614479,-2.2738266313076,2.87415416295624
1.08507650019601,-0.176829595416784,-1.57336995720863,-1.99465365886688,2.54664582282127
1.09506450011395,0.342549956180155,-1.30358702838421,-1.66506891667843,2.1422264376903
1.10505250003189,0.618405035734177,-1.09845822483301,-1.49936174869537,1.95885704260815
1.11504050018266,0.636011586785317,-1.09558461070061,-1.44961831569672,1.92515184827913
1.1250285001006,0.418330017216504,-1.29071818381548,-1.58749741494656,2.08832504074397
1.13501650001854,-0.00888144548982382,-1.34961338639259,-2.02738227903843,2.43553158020239
1.14500450016931,-0.428870427422226,-1.09782555609941,-2.64590718269348,2.89654546219652
1.15499250008725,-0.731207181215286,-0.892011751234532,-3.14860751509666,3.35321907878452
1.16498050000519,-0.762947037220001,-0.832742911577225,-3.62734946608543,3.79910688024109
1.17496850015596,-0.822278807535768,-0.691253156661987,-3.60479500114918,3.76145189577478
1.18495650007389,-1.27500203758478,-0.182985397875309,-3.03027214944363,3.29266809007143
1.19494549999945,-1.07027552247047,-0.151155494749546,-2.40514456987381,2.63686519935811
1.20493350015022,-0.934812346547842,-0.314507111907005,-1.79164885640144,2.04518812614952
1.21492150006816,-1.1980431778729,-0.101949128508568,-1.42151133477688,1.86182586611922
1.2249094999861,-0.996602140143514,0.0453270310163498,-1.2093275731802,1.56771921744083
1.23489750013687,-0.700399225205183,0.346491089165211,-0.974774118661881,1.24931970766172
1.24488550005481,-0.633519284203649,0.515553097128868,-0.763635839223862,1.11815981611047
1.2548736250028,-0.539020166248083,0.543238201439381,-0.348290569782257,0.840807233629953
1.26486162515357,-0.868331551104784,0.731125320196152,0.492793979644775,1.23749336274992
1.27484962507151,-1.07919698484242,0.605957190692425,1.4062004005909,1.87329917943366
1.28483762498945,-1.38022706866264,0.453908826112747,1.78363641679287,2.30052577703486
1.29482562514022,-1.15887684635818,0.0327066931128502,1.93784854352474,2.25816789686693
1.30481362505816,-0.544878016524017,-0.372689831256867,2.00992249310017,2.11555623689927
1.31480262498371,-0.654074293747544,-0.129563773870468,2.03209922790527,2.13869755348766
1.32479062513448,-0.806242014616728,0.196521117389202,2.04915614068508,2.2108115307779
1.33477862505242,-0.838716207817197,0.264399105012417,2.1330783033371,2.30724398626459
1.34476662497036,-0.840427322387695,0.160064897239208,2.31624935030937,2.4692002568347
1.35475462512113,-0.847348525375128,0.204349954426289,2.58522653281689,2.72821455411957
1.36474262503907,-0.970444913282991,0.385326541364193,2.81115300536156,2.99880327676722
1.37473062518984,-0.771057344600558,0.538646382987499,2.72818569302559,2.88576965993433
1.38471862510778,-0.332351059913635,0.631289375424385,2.2968985748291,2.40514585121181
1.39470662502572,0.0909368845447898,0.805792217552662,1.58716646254063,1.78232095725009
1.40469462517649,0.508793825469911,0.985678006410599,0.668539062738419,1.29513581047126
1.41468262509443,0.751639545410872,1.11407262951136,-0.21329824090004,1.36074096345442
1.42467162501998,0.704126094281674,1.16817282289267,-0.674525442123413,1.52164577772397
1.43465962517075,0.432532611675561,1.08189949482679,-0.514357926249504,1.27363850968987
1.44464762508869,0.275124890226871,0.440623659789562,0.167594649195671,0.545830450989788
1.45463562500663,0.695610940307379,-0.898197813034058,0.975718443989754,1.49755145940174
1.4646236251574,0.783000867292285,-1.66763818323612,1.94838931918144,2.6814787725186
1.47461162507534,0.588904224783182,-2.04186115443707,2.50275623381138,3.28325964947158
1.48459962499328,0.493202992379665,-2.05405756920576,2.46303317427635,3.24483190733967
1.49458762514405,0.334592078402638,-1.72412053227425,2.14719640552998,2.77398555739937
1.50457562506199,0.214685291815549,-1.52418288677931,1.67156517326832,2.27230133902975
1.51456362497993,0.322085432298481,-1.46731959164143,0.929692670702934,1.76666190078136
1.52455262513831,0.673438810184598,-1.48159147560596,-0.039437130689621,1.62793993099504
1.53454062505625,0.753398534059525,-0.886184708476067,-0.871570177674294,1.45346732445936
1.54452862497419,0.896590851992369,-0.34388089209795,-1.4949734133482,1.77681589660956
1.55451662512496,1.41495865255594,-0.062546788752079,-1.91859717071056,2.38475055145915
1.5645046250429,1.67140262067318,0.223089988231659,-1.90880133032799,2.54693509573846
1.57449262519367,1.53689911901951,0.57135980039835,-1.72488534808159,2.37986142192791
1.58448062511161,1.35670985966921,0.602336302399635,-1.48900457561016,2.10252355294777
1.59446862502955,1.14841595828533,0.116561028063297,-1.39933518469334,1.81399687034689
1.60445662518032,1.12217964783311,-0.366734734475613,-1.54999161958694,1.94839820064367
1.61444462509826,0.980928605496883,-0.426931527256966,-1.96166249871254,2.23441518454005
1.62443362502381,1.03465625815094,-0.31815197378397,-2.74711371481419,2.95268826886174
1.63442162517458,1.46952399194241,-0.658820697963238,-3.75718045771122,4.08778062850322
1.64440962509252,1.49438211366534,-1.13506530314684,-4.45555026054382,4.83461262856528
1.65439762501046,1.17728556230664,-1.09685287177563,-4.59440759897232,4.86802513377167
1.66438562516123,0.855762522518635,-0.606515892148018,-4.08993322134018,4.22229141313074
1.67437362507917,0.312049015536904,-0.0248053506016731,-3.61077144026756,3.6243151473579
1.68436162499711,-0.186569192893803,0.589334726035595,-3.34110136270523,3.39780543864996
1.69434962514788,-0.560780542753637,1.00347722321749,-3.19833340644836,3.3986435431582
1.70433762506582,-0.865185822173953,1.24220968276262,-3.04663909077644,3.40200546035528
1.71432662499137,-1.06838197477162,1.37722949355841,-2.87286510407925,3.36029091421864
1.72431462514214,-1.13378995232284,1.44765540540218,-2.73212788581848,3.29328234642057
1.73430262506008,-0.588653123416007,1.57733992427588,-2.36982037067413,2.90698509209871
1.74429062497802,0.0814456475526095,1.87920009344816,-1.5175623768568,2.41682062891976
1.75427862512879,0.334335385635495,2.13761661976576,-0.639839758872986,2.25623134457029
1.76426662504673,0.492752829864621,2.08498144626617,0.16500784099102,2.14876256720055
1.7742546251975,0.569056618697941,1.81359024077654,1.06377575755119,2.17819968301289
1.78424262511544,0.515817464366555,1.46837296754122,1.93637738406658,2.48429953948309
1.79423062503338,0.231334562301636,1.25849242419004,2.50802925288677,2.81558690059369
1.80421962519176,0.038900283202529,0.896526971161366,2.8081557226181,2.94805230695214
1.8142076251097,0.0945895305275917,0.536785214245319,2.66341900885105,2.71861846573346
1.82419562502764,-0.235798728726804,0.295222409963608,2.24384093999863,2.27542951458133
1.83418362517841,-0.205666235759854,0.351308610141277,1.67177801191807,1.72062722901381
1.84417162509635,-0.231987623199821,0.46491123944521,1.25053933382034,1.35418216769835
1.85415962501429,-0.378965647816658,0.936852001547814,0.929381598830223,1.37297370378076
1.86414762516506,-0.552987117916346,1.36711731880903,0.792708780169487,1.67427349203373
1.874135625083,-0.96574674859643,1.73554891526699,0.716721873879433,2.11151297988107
1.88412362500094,-1.26875779598951,1.964706851542,1.07813710391521,2.57530560753844
1.89411262515932,-1.62919814899564,1.96077898442745,1.75432315528393,3.09460669029661
1.90410062507726,-1.72298456445336,1.82004001200199,2.60761142849922,3.61674699373242
1.9140886249952,-0.651759161800146,0.87408067971468,3.34926407575607,3.52226871331406
1.92407662514597,0.441443147063255,0.161930451393127,4.11459151446819,4.14137137360454
1.93406462506391,0.552370565570891,-0.138573748469353,4.83999299526215,4.87338158978554
1.94405262498185,0.417970230728388,-0.542020518779755,4.99576866745949,5.04243888761415
1.95404062513262,0.214571399018168,-0.955913486033678,4.83192851543427,4.93024793051267
1.96402862505056,-0.169160314276814,-1.34184389859438,4.6557396286726,4.84820294027732
1.9740166249685,-0.610717116594315,-1.64828638449311,4.32866568088532,4.67195569100147
1.98400562512688,-0.865492143183947,-1.79813488036394,3.69482574999332,4.19929791997523
1.99399362504482,-0.916100013926625,-1.7429399420321,2.83658196151257,3.45300971638159
2.00398162519559,-0.772935835719109,-1.49315142095089,1.79247389853001,2.45761950857691
2.01396962511353,-0.482010617628694,-1.16174088567495,0.491557293534279,1.35040908386398
2.02395762503147,-0.190169725567102,-0.855850230753422,-0.691900443434715,1.11685736136183
2.03394562518224,0.160128412619233,-0.692653564810753,-1.47960166811943,1.64153317531959
2.04393362510018,0.528410831987858,-0.633406213670969,-1.8838869291544,2.05656300674642
2.05392162501812,0.722449148520827,-0.608013364076614,-1.99175227046013,2.2042436639304
2.06390962516889,0.940328902155161,-0.662160335183144,-1.90394463300705,2.22433808565032
2.07389862509444,1.02551559828222,-0.782345613688231,-1.7194743347168,2.14949735736686
2.08388662501238,0.841352351903915,-0.936021843105555,-1.67513548314571,2.09525405565024
2.09387462516315,0.549890322871506,-1.07014249831438,-1.93667851567268,2.27997982599724
2.10386262508109,0.131544737443328,-1.07351707264781,-2.33484641969204,2.57317910895532
2.11385062499903,-0.375315852351487,-1.07087544679642,-2.73638115048409,2.9623332041319
2.1238386251498,-0.78031049028039,-0.937340097874403,-2.93780369639397,3.18090890766631
2.13382662506774,-0.793303295820952,-0.67734365388751,-2.89472491979599,3.07693953562789
2.14381462498568,-0.70378797903657,-0.715331113636494,-2.80712485849857,2.98110148984791
2.15380262513645,-0.780083910673857,-0.660933589339256,-2.92188289761543,3.09560394504637
2.16379062505439,-0.754617824703455,-0.602371093332768,-3.0640871822834,3.21262030997697
2.17377962497994,-0.488107107393444,-0.472930110991001,-3.33472438931465,3.40327756594433
2.18376762513071,-0.41609254360199,-0.323987495005131,-3.66606388092041,3.7037987635332
2.19375562504865,-0.529853888265789,-0.134663715362549,-3.90223701417446,3.94034683421889
2.20374362496659,-0.623835271820426,0.00891466498374939,-3.99433709263802,4.04276869573847
2.21373162511736,-0.716569627001882,0.194773969352245,-3.88666237056255,3.95696263720366
2.2237196250353,-0.705221643224359,0.383954784572125,-3.69081222116947,3.77714888435733
2.23370762518607,-0.68284471437335,0.509183140397072,-3.37541984081268,3.48123591216743
2.24369562510401,-0.704449810758233,0.592607120275497,-2.9422382247448,3.08288801386426
2.25368400011212,-0.765984665751457,0.574164125025272,-2.41198698163033,2.59501024086353
2.26367200003006,-0.786791982650757,0.578958549499512,-1.62146330595016,1.8929812145251
2.27366100018844,-0.74915352858603,0.566313653290272,-0.711940605640411,1.17847426329789
2.28364900010638,-0.726552139744163,0.466504898071289,0.117876943945885,0.87143548562435
2.29363700002432,-0.662598145455122,0.368961938917637,0.75363651573658,1.06917595024486
2.30362500017509,-0.63338954910636,0.286891589462757,1.20338387846947,1.38982799798459
2.31361300009303,-0.584293256700039,0.242180562615395,1.41847721457481,1.5531025861165
2.32360100001097,-0.374324932023883,0.173094247877598,1.56703508377075,1.62039492937722
2.33358900016174,-0.0843452269770205,0.0912671425938606,1.87366365730762,1.87778042096152
2.34357700007968,0.260999789647758,0.0263083773851395,2.5937295538187,2.60696106976483
2.35356499999762,0.59742252163589,0.0556619846820831,3.53760230720043,3.58812513853772
2.36355300014839,0.740212404951453,0.143670181632042,4.14720903754234,4.21519849195825
2.37354100006633,0.748975480869413,0.215597950816155,4.00052987873554,4.0757436202484
2.38352999999188,0.710926990807057,0.271373956203461,3.2883021748066,3.37520254254486
2.39351800014265,0.633440419882536,0.532537504434586,2.54259448349476,2.67387914212074
2.40350600006059,0.571815481223166,0.922852013111115,1.94075870275497,2.22377452206578
2.41349399997853,0.466969532445073,1.13657403096557,1.55014013886452,1.97807874520106
2.4234820001293,0.236411261111498,1.01438271895051,1.60301651000977,1.91168107074628
2.43347000004724,-0.00864540298702195,0.685517769008875,2.22702551722527,2.33016136973219
2.44345799996518,-0.209123529922217,0.318348878771067,2.95755968391895,2.98198557060974
2.45344600011595,-0.200571922212839,-0.0232340575754642,3.27716439843178,3.28337865799245
2.46343400003389,-0.0433719505090267,-0.320504162460566,3.24507780253887,3.26115531503423
2.47342200018466,0.190710921920836,-0.490131596177816,2.96371446311474,3.01001711891929
2.48341000010259,0.52938512429595,-0.514940747469664,2.4766823297739,2.58444731922412
2.49339800002053,0.818999542817473,-0.439578616172075,1.84100578844547,2.06235106711266
2.50338700017892,0.932319166883826,-0.143075081259012,1.08203076481819,1.43543724482447
2.51337500009686,1.33013952702284,-0.192514166682959,0.409151313900948,1.40489774125701
2.5233630000148,1.45491969376802,-0.568176283836365,-0.0807728523015976,1.56401402119581
2.53335100016557,1.11033786669374,-0.787429329156876,-0.554965669512749,1.46999388467033
2.54333900008351,0.892303673475981,-0.821019682735205,-1.05430911540985,1.60681264495076
2.55332700000145,1.01962131254375,-0.751460474431515,-1.60972034275532,2.04829686508245
2.56331500015222,1.45727597549558,-0.709902997165918,-2.13351625978947,2.67946023760902
2.57330300007015,1.60678504049778,-0.4889272159338,-2.54167588591576,3.04646094639237
2.58329099998809,1.41835339978337,-0.41677125915885,-2.8903704982996,3.2464852173664
2.59327900013886,1.2863264863193,-0.549566058218479,-2.9943380856514,3.30495374444709
2.6032670000568,0.822984858825803,-0.495682796537876,-3.19895438075066,3.34010698073639
2.61325499997474,0.745600614175201,-0.0309890735149384,-3.16667131841183,3.25341172269786
2.62324300012551,1.26743544816971,0.333353272676468,-2.89001147925854,3.17327644083011
2.63323200005107,1.26166176125407,0.598664835691452,-2.45629952073097,2.82552602551231
2.64321999996901,1.08037929184735,1.18367174506187,-2.15181862950325,2.68302471635795
2.65320800011978,1.78006245240569,1.33348121076822,-2.16326572358608,3.10266225438395
2.66319600003772,2.4627378898859,1.46030497938395,-2.38704392910004,3.72767317056452
2.67318400018849,2.70464655697346,1.72823375612497,-2.72000894665718,4.20717881529337
2.68317200010642,2.90910907030106,1.92683165833354,-2.85858269512653,4.51077497192457
2.69316000002436,3.02761517465115,2.15548000976443,-2.69221362233162,4.58917878345788
2.70314800017513,2.71211695969105,2.49151583880186,-2.11426898002625,4.2465707221175
2.71313600009307,2.08174983635545,2.71583140343428,-1.17189019024372,3.61700832332954
2.72312400001101,1.35822794303298,2.56586377054453,-0.313853977918625,2.92009320975957
2.73311200016178,0.168580197393894,2.25599437773228,0.392459852099419,2.29607374681714
2.74310000007972,-0.920088911354542,1.74446372643113,1.07052461385727,2.24404550900953
2.75308799999766,-1.67873444437981,1.01371569782496,1.50223273158073,2.47031820432033
2.76307600014843,-2.20728473246098,0.232158032990992,1.65309381902218,2.7674396862311
2.77306500007398,-2.44017640829086,-0.474427071288228,1.57734781801701,2.94407338369026
2.78305299999192,-2.50447063744068,-0.903925891667605,1.37625797867775,2.99725561394149
2.79304100014269,-2.24002095401287,-1.09032518640161,1.17754152417183,2.75555927674716
2.80302900006063,-1.71358355730772,-1.21009333916008,1.28791590571404,2.46158929912083
2.81301699997857,-1.40025904476643,-1.21637069061399,1.62626854777336,2.46678585185496
2.82300500012934,-1.20539809808135,-1.04603267401457,1.84709507882595,2.44109179675555
2.83299300004728,-0.962977799624205,-0.768462569564581,1.97110516726971,2.32446048446262
2.84298099996522,-0.751858815997839,-0.584617046266794,1.92507822453976,2.14778838356495
2.85296900011599,-0.603084453642368,-0.64027259901166,1.66126237928867,1.87974800228917
2.86295700003393,-0.675148316770792,-0.718834765255451,1.41358017146587,1.72358857345359
2.8729450001847,-0.937541607543826,-0.88758482426405,1.14252430379391,1.72399329201115
2.88293300010264,-1.20961920306087,-0.989788891375065,0.920214334130287,1.81374063378476
2.89292100002058,-1.35319714486599,-0.621651702225208,0.885174309611321,1.73237608796382
2.90290900017135,-1.28180644243956,0.276206679940224,1.11442960202694,1.72083445566303
2.91289700008929,-1.04384983532131,1.32291178375483,1.7163583534956,2.40532826531262
2.92288600001484,-1.12389098167419,2.09012085646391,2.51742865204811,3.45965072680275
2.93287400016561,-1.45447676718235,2.29967687934637,3.36045506179333,4.32396515226544
2.94286200008355,-1.54623419880867,1.98504756063223,3.43667644143105,4.25934255239287
2.95285000000149,-0.654786411523819,0.639821924865246,2.60590988874435,2.76204339004841
2.96283800015226,0.490569844990969,-0.639585404992104,1.88947745203972,2.05422815306866
2.9728260000702,0.389370183348656,-0.930297857522965,1.73956244409084,2.01075626078451
2.98281399998814,-0.268305775970221,-1.07809588104486,2.07702806353569,2.35548812241958
2.99280200013891,-0.790367774292827,-1.37031106799841,2.49424736559391,2.95359163773391
3.00279000005685,-0.940587933808565,-1.48798803716898,2.63176627635956,3.16622927049949
3.01277799997479,-0.774568524509668,-1.67724398910999,2.07097853422165,2.77525780556934
3.02276600012556,-0.637313615530729,-1.66736394882202,1.04426827669144,2.06803467477611
3.0327540000435,-0.249284198731184,-1.59042394638062,0.0019079464673996,1.60984302999319
3.04274200019427,0.295360696613789,-1.32465074568987,-0.784541974067688,1.56762356713432
3.05273000011221,0.811225157976151,-1.09394008129835,-1.14916966438293,1.78196017799009
3.06271800003015,1.3166381599009,-0.70143315911293,-0.952467575669289,1.76995452018172
3.07270600018092,1.6398118686676,-0.362087367475033,-0.692386931777001,1.8164498037666
3.08269400009885,1.67284059718251,-0.286999762952328,-0.831058913469315,1.88982100876602
3.09268200001679,1.35719298586249,-0.297572113573551,-1.14914101302624,1.80306600862807
3.10267000016756,0.939956873059273,-0.380708410441876,-1.52071051776409,1.82784526036283
3.11265900009312,0.472384711951017,-0.509001876711845,-1.79009057343006,1.92006627168554
3.12264700001106,-0.010750836879015,-0.801353596150875,-1.83451830267906,2.00193420706626
3.13263500016183,0.0501218940317631,-1.1379497346282,-2.11750541388989,2.40442737063416
3.14262300007977,0.342899583131075,-1.40842468142509,-2.47652854800224,2.86957032609918
3.15261099999771,0.518821252137423,-1.48113919347525,-2.87663071095943,3.27688160441492
3.16259900014848,0.56108989700675,-1.31858572125435,-3.16045397400856,3.47015266215269
3.17258700006641,0.617823091596365,-1.01944187611341,-3.36218759179115,3.56724999315688
3.18257499998435,0.689282206445932,-0.787349222302437,-3.58880988299847,3.7382596397643
3.19256300013512,0.648832191824913,-0.767211411595345,-3.65612361431122,3.7916798976647
3.20255100005306,0.459298058599234,-0.756652217209339,-3.56008485138416,3.66847126654903
3.212538999971,-0.160145588815212,-0.580955958366394,-5.4596686309576,5.49282604813232
3.22252700012177,-0.981358960568905,0.0777618286013603,-8.40040412127972,8.45788990897195
3.23251500003971,-0.333526788800955,0.433645007908344,-6.44471513807774,6.46789311311651
3.24250300019048,0.531077454686165,0.548684882819653,-3.77832340478897,3.85471479031677
3.2524904999882,0.405098316371441,0.533252911269665,-1.51008086442947,1.65191026706072
3.26247850013897,-0.445135079026222,0.651602017879486,-0.119886631965637,0.798187467208277
3.27246650005691,-1.01063538461924,0.418282910585403,1.54604416429997,1.89383131030677
3.28245449997485,-1.81064236700535,-0.178761076927185,2.09675656914711,2.77610688088201
3.29244250012562,-2.58755781769753,-0.27376225143671,0.453338137865067,2.6411960732748
3.30243050004356,-2.44939761355519,-0.265363603234291,-1.24333439469337,2.7596823962621
3.31266870861873,2.90221988081932,0.234166368842125,-3.09518004387617,4.24945333295107
3.32265670853667,1.82643862009048,0.867819188833237,-4.73805439174175,5.151518960129
3.33264470845461,0.842337607741356,0.533773605823517,-5.6893718200922,5.77610583481194
3.34263270860538,1.74836952030659,-1.75481081306934,-5.47229043066502,6.00683939578462
3.35262070852332,3.51137988388538,-5.23793812036514,-4.44246857732535,7.71370932186664
3.36260870844126,5.13343492805958,-7.41613237023354,-2.77967071920633,9.43810059284498
3.37259670859203,6.58977695703507,-6.66782091379166,-1.37440148770809,9.47491295639606
3.38258470850997,7.97059284031391,-4.813469440341,-1.7104745927453,9.46707777572294
3.39257270842791,9.42030295729637,-4.35415135502815,-2.63647854745388,10.7075562553238
3.40256070857868,9.97443422913552,-5.32404948055744,-3.40555902153254,11.8081613010627
3.41254870849662,8.10329013705254,-6.17161508381367,-4.67255592852831,11.2064678955162
3.42253670841455,4.85478995919228,-6.2174859058857,-5.36597460150719,9.54042975770912
3.43252470856532,2.68862781733275,-6.05169453799725,-5.39368864953518,8.54070275618381
3.44251270848326,2.34193192943931,-6.1750047147274,-5.66991871833801,8.70421200693048
3.45250070863403,2.89058333694935,-5.64539900422096,-5.76200827181339,8.56894049863542
3.46248770854436,3.4420055937767,-4.60570675849915,-5.52546208620071,7.9743757447788
3.4724757084623,4.76528692156076,-3.56352009057999,-5.85390837550163,8.3471479050951
3.48246370861307,5.34686590075493,-1.31360213935375,-4.15608920395374,6.89837683896664
3.49245170853101,5.36968290567398,1.13117251932621,-2.28701341822743,5.94503794362311
3.50243970844895,5.45422311902046,1.7663719278574,-1.42664343595505,5.90795490105786
3.51242770859972,5.11032029986382,0.256344857811928,1.1260596408695,5.23918854099773
3.52241570851766,4.01816391170025,-2.54858261704445,4.81982653319836,6.77286072404521
3.5324037084356,1.36129290729761,-5.00728241980076,5.79630628466606,7.77966337040131
3.54239170858637,-2.19783987119794,-8.13718703091145,4.44458556175232,9.52883275596744
3.5523797085043,-6.09818808853626,-12.8845069205761,2.58289758682251,14.4868829115705
3.56236770842224,-7.76516436696053,-16.1542944717407,0.12480903737247,17.9241341442603
3.57235570857301,-5.62141431033611,-14.179787979126,-1.62459258958697,15.3396866677112
3.58234370849095,-4.9028850620985,-10.7998143267632,-2.69785618543625,12.163580863463
3.59233170864172,-6.10786289155483,-8.47736341953278,-1.76997352033854,10.5973810873991
3.60231970855966,-6.58946763932705,-5.86798379302025,0.0238567860424519,8.82354161950444
3.6123077084776,-5.08639466285706,-3.85609488129616,7.96650271296501,10.2081361607092
3.62229570862837,-1.15884271323681,-2.9008691740036,14.1252053904533,14.4664918249449
3.63228370854631,2.35688325986266,-1.36618965804577,10.842793700695,11.1797830085474
3.64227170846425,3.51649999827147,-0.368214372396469,4.05812202930451,5.38235157404355
3.65225970861502,2.60130549877882,1.73614883959293,1.91665794163942,3.66804863059997
3.66224770853296,2.20311025902629,3.87948783695698,3.37808734059334,5.59603384292849
3.6722357084509,2.86301313042641,4.8250785022974,5.97950188994408,8.19955301160809
3.68222370860167,3.90712470173836,4.61929159462452,8.19633746445179,10.1874150844205
3.69221170851961,3.88896178811789,4.63565561234951,9.39016465365887,11.1708781646106
3.70219970843755,3.52629642337561,5.31375253379345,9.34180701076985,11.3110605463138
3.7121867085807,2.56845613360405,6.38567463219166,9.5116733032465,11.7407723956372
3.72217470849864,0.644047122895718,7.36102294743061,10.0132562327385,12.444466879364
3.73216270841658,-1.54789013028145,8.42210021495819,10.4663990736008,13.5230634641006
3.74215070856735,-3.61725249409676,8.35623483896256,10.7926152348518,14.1206132974987
3.75213870848529,-4.43666024565697,7.98941034972668,11.0420457601547,14.3332273560794
3.76212670863606,-5.05536465883255,8.29869238972664,10.8394666349888,14.5574394776044
3.772114708554,-6.24473217666149,9.43185354709625,10.2549181473255,15.2682640630967
3.78210270847194,-7.31236534237862,10.9194904589653,9.15737062633038,16.0175964355403
3.79209070862271,-7.67914831638336,12.2069327402115,8.38100130558014,16.679919324541
3.80207870854065,-5.77370153367519,12.6201519620419,8.32308872759342,16.1826348569195
3.81206670845859,-3.13499812066555,12.2096107649803,7.14470228075981,14.4896369495441
3.82205470860936,-1.79335448920727,10.5266487836838,4.61729886353016,11.6338258425227
3.8320427085273,-1.06194316707551,6.93442178785801,-1.63515046834946,7.20330798148751
3.84203070844524,-1.11365528449416,0.577429502606392,-17.4744437384605,17.5194131434756
3.85201870859601,-1.30605075269938,-10.1979452168942,-28.0065772104263,29.8340782036076
3.86200670851395,-0.739056629687548,-27.5859098052979,-27.2217124700546,38.7627431213303
3.87199470843188,8.59969711124897,-39.4598272418976,-12.8090252137184,42.3686662911556
3.88198270858265,13.2306585788727,-29.0962222194672,-0.272199583053589,31.9642701541632
3.89197070850059,5.63126452982426,-9.47863419592381,-2.11586059212685,11.2264202874428
3.90195870841853,0.10066080417484,2.56880111932755,-1.39188261598349,2.92338998507428
3.9119467085693,-4.86945272952318,6.69393516361714,-1.28895320177078,8.3774541607893
3.92193470848724,-8.16379829406738,4.31975803256035,-3.14177562832832,9.75595541937565
3.93192270863801,-7.07082914292812,-0.0874889642000198,-0.403511674404144,7.08287376413832
3.94191070855595,-5.39240518569946,-3.09706255495548,2.19367767691612,6.5940921972828
3.95189870847389,-5.42708385229111,-5.34503104448319,3.40231966406107,8.34256406045195
3.96188670862466,-8.29379125356674,-8.22545133590698,7.84652603387833,14.071708987804
3.97187370853499,-10.0980677568913,-10.4494327926636,6.12207279503346,15.7683668595974
3.98186170845293,-4.48597303122282,-7.47610843062401,6.66484701991081,10.9743490514071
3.9918497086037,-0.397516122199595,-3.1825628811121,9.97021020054817,10.4733861287912
4.00183770852163,-2.53399702996016,-1.68340052247047,7.23986454606056,7.85306417344246
4.01182570843957,-2.90057359725237,0.642528893351555,8.65365346312523,9.14942013636539
4.02181370859034,-0.966064325496554,3.53539732217789,12.938311829567,13.4473873858743
4.03180170850828,1.86821902245283,5.60787274360657,15.5601904642582,16.6450595165152
4.04178970842622,3.55885021179915,5.60466788470745,15.32666436553,16.7028248359821
4.05177770857699,3.01142598867416,3.90197915196419,12.0781513237953,13.0451472658657
4.06176570849493,2.83270525753498,2.1908464550972,7.70234305143356,8.49412242364361
4.07175370841287,3.01745095968247,0.789641915559769,3.31247690320015,4.5498404239195
4.08174170856364,3.15480439424515,-0.718144501447678,-0.0995393447577953,3.23704037232513
4.09172970848158,3.16593924701214,-2.5943487739563,-0.485132957696915,4.12179219070347
4.10171770863235,3.73529023647308,-3.94820899307728,0.275326527804136,5.44210915919739
4.11170570855029,5.08033753216267,-3.76049816787243,-0.136806135177612,6.32217461241738
4.12169370846823,5.41003395617008,-2.71037507414818,-1.23336956977844,6.17541909064741
4.131681708619,3.94529415607452,-0.962845214009285,-1.70883357167244,4.40596516778914
4.14166970853694,1.05488448143005,1.53020815014839,-1.53296569705009,2.40921192099715
4.15165770845488,-1.28492651671171,4.17519264221191,-1.05350336909294,4.49367768110037
4.16164570860565,-2.5637190118432,5.90634620547295,-0.661549885869026,6.47265238693415
4.17163370852359,-3.71430282533169,6.14915008127689,-0.75415640629828,7.22335407449305
4.18162170844153,-4.35069915890694,5.42076710522175,0.364762103185058,6.96034126837813
4.1916097085923,-3.24846450984478,3.72114582180977,0.691686873883009,4.98777291287358
4.20159770851024,-0.701911534443498,1.74044186532497,-1.23851204976439,2.24849500470255
4.21158470842056,1.40837205648422,0.313187395334244,-2.05434086680412,2.51036144630676
4.22157270857133,2.47319241911173,-0.507600883841515,-2.26535357728601,3.39207403064127
4.23156070848927,2.67909948706627,-0.642037727236748,-3.56085492968559,4.50216329502388
4.24154870864004,1.59594824954867,0.0528547364473343,-4.49684505164623,4.77194508108775
4.25153670855798,0.301709767822176,0.91151718556881,-4.532282102108,4.63286881064801
4.26152470847592,-0.0985695931781083,0.673570591807365,-3.5155606430769,3.58086301636886
4.27151270862669,0.517638579681516,0.0986419433355332,-2.05993782162666,2.12626991727949
4.28150083357468,1.69149175330997,0.265400440692902,-1.28419590711594,2.14026654258037
4.29148883349262,2.25042285829783,1.02092385292053,-1.66311828553677,2.97869954616074
4.30147683364339,1.95350943356752,1.47867605388165,-3.39340295255184,4.18543493292488
4.31146483356133,1.44752340450883,0.957923027873039,-4.72459147006273,5.03335922549939
4.32145283347927,1.70940806061029,-0.661637594103813,-4.43174215257168,4.79585015721838
4.33144083363004,2.5270525842905,-3.19420527219772,-3.41583871901035,5.31572161037383
4.34142883354798,3.12579109489918,-4.96192322909832,-2.50382247358561,6.37654915135521
4.35141683346592,4.20370161920786,-4.64231968402863,-1.86661483883858,6.53502029902148
4.36140483361669,6.30278567254543,-3.71766848266125,-2.29214654266834,7.66812245299221
4.37139283353463,9.08821619153023,-3.80933001995087,-2.53166019022465,10.1742799285089
4.38138083345257,10.9038596820831,-4.76342779934406,-1.93564531266689,12.0553358784636
4.39136883360334,10.3831475865841,-5.61252011060715,-2.4412256911397,12.052788833786
4.40135683352128,7.25924631178379,-5.73631443679333,-3.83828630894423,10.0167061513423
4.41134483343922,4.47237182289362,-5.41678749024868,-5.23026131093502,8.757815356434
4.42133283358999,3.1089119374752,-5.1332881629467,-5.28790257811546,7.99861828533308
4.43132083350793,2.86274532794952,-4.68973183214665,-4.73255450069904,7.25161827265012
4.44130883342587,3.30248079568148,-4.84674769878388,-4.75629127264023,7.55113563192354
4.45129683357663,4.98099333822727,-5.03519059538841,-4.59175617903471,8.44083312091027
4.46128483349457,6.17057661831379,-3.47447986006737,-3.08459716826677,7.72416764389368
4.47127283341251,5.60174661576748,-1.16643239915371,-1.64371722400188,5.95331302734354
4.48125983355567,4.32888962924481,0.538218074440956,-1.25830107405782,4.54007551818394
4.49124783347361,3.01792692303658,0.686040363907814,-0.57912884965539,3.14863851818575
4.50123583362438,1.81289983078837,-1.75703977167606,1.85357262432575,3.13201628817186
4.51122383354232,-0.0233379461523145,-4.55140834450722,4.49501136481762,6.39695159806764
4.52121183346026,-3.57664855152369,-6.96779477119446,4.89150696516037,9.23414420641208
4.53119983361103,-7.37836520433426,-11.3921898972988,3.23383185267448,13.9527750715053
4.54118783352897,-10.0795122027397,-16.1290999889374,0.231210601329803,19.0209855433541
4.55117583344691,-9.4291457015276,-16.4139400827885,-2.35286256819963,19.0751718201132
4.56116383359768,-6.73616141617298,-12.2985703039169,-2.58316421985626,14.2584515124143
4.57115183351561,-5.49562023639679,-8.17038986027241,-1.47899355769157,9.95713483865862
4.58113983343355,-5.59396221756935,-6.37341652929783,-0.889872401207686,8.52670654109495
4.59112783358432,-4.73257174998522,-4.74130719780922,0.971030731201172,6.76905680236861
4.60111583350226,-1.86757495164871,-3.14786082565785,9.45214104652405,10.13606601898
4.6111038334202,1.2974679172039,-1.71693255007267,14.4581505274773,14.6174346946673
4.62109183357097,3.34805779516697,0.133120635151863,9.363168643713,9.94465379758852
4.63107983348891,3.03367172062397,1.22235750854015,3.25484294503927,4.61425233207613
4.64106783363968,2.34201247483492,3.31475147008896,2.4988912242651,4.76624140087852
4.65105583355762,2.85026386141777,4.97411642789841,4.50526913523674,7.29131595110991
4.66104383347556,3.62183963477612,4.97373928248882,6.68303887724876,9.08398664821928
4.67103183362633,4.26683985382319,4.46416028559208,7.76102102994919,9.91806920831595
4.68101983354427,3.86682773798704,4.66727676987648,8.45031653881073,10.3992152977036
4.69100783346221,3.00531184762716,5.40172681689262,8.85480820655823,10.7989897805654
4.70099583361298,1.52845866322517,6.50583082079888,8.9220172727108,11.1473948870844
4.71098383353092,0.127969530522823,7.73342568039894,9.3600661110878,12.1422027062198
4.72097083344124,-1.11740400753915,8.12517275691032,9.77489857971668,12.759924227418
4.73095883359201,-2.09849962413311,7.78718965888023,9.99054798603058,12.839590044742
4.74094683350995,-2.97398188143969,7.75519194066525,10.180369656086,13.1387783527331
4.75093483342789,-4.32792893171311,8.17892153263092,9.95104770541191,13.5885641886947
4.76092283357866,-6.20220947027207,9.10757164478302,9.41965800940991,14.4963864667105
4.7709108334966,-8.03582262396813,10.6960192322731,9.30638399362564,16.2968725741427
4.78089883341454,-7.81964989185333,12.3298435521126,9.85267531871796,17.6138348290998
4.79088683356531,-6.04704190850258,12.8999061477184,8.94149668693543,16.8203643678015
4.80087483348325,-4.71064615309239,11.8542789781094,6.95151846170425,14.5271375774412
4.81086283363402,-3.62744711458683,9.0346580350399,1.7044581001997,9.88375413466825
4.82085083355196,-2.66135055631399,3.39789653778076,-13.7598573231697,14.4208932184883
4.8308388334699,-1.60816659137607,-6.19179440975189,-29.9550869822502,30.6305689452943
4.84082683362067,-2.5678243419528,-22.5616546726227,-31.7058930373192,38.9985337764348
4.85081483353861,2.98668144911528,-36.6213080978394,-15.9911875605583,40.0719172547598
4.86080283345655,8.64422248899937,-31.1723158979416,-0.135823218226433,32.3489460234332
4.87079083360732,2.61723009824753,-13.0849459648132,-3.572450543046,13.8140546970021
4.88077883352526,-2.0817153377831,1.28146116435528,-3.10176839411259,3.94925925130625
4.8907668334432,-6.39343564152718,7.33505546271801,0.261604428291321,9.73383248368293
4.90075483359397,-8.9057678604126,6.86786702513695,-0.3620391279459,11.2521718343032
4.9107428335119,-7.9099344098568,1.90824526011944,-0.68292496740818,8.16546684838744
4.92073083342984,-3.74552578747273,-2.31014836549759,-0.394247053563595,4.41827790371746
4.93071883358061,0.0454315545642749,-4.76669054567814,0.156937513947487,4.7694897177467
4.94070583349094,-0.0413294449914247,-7.60738251507282,4.0200221568346,8.60433350092267
4.95069383364171,-2.44181128978729,-11.3758083379269,4.90179426401854,12.6253334499705
4.96068183355965,-0.807026564776898,-11.1503139746189,7.77299261927605,13.616174494628
4.97066983347759,0.911153634935618,-6.45149498462677,11.0815846323967,12.8550965164829
4.98065783362836,-0.897298584356904,-1.85000465333462,8.03416435360909,8.29309705885874
4.9906458335463,-1.64425487548113,1.75621005177498,7.77234708666802,8.13616783732586
5.00063383346424,-1.35934461504221,4.31264723360539,11.3986826455593,12.2628181915147
5.01062183361501,-0.325010246112943,5.80902631759644,14.1700979733467,15.3180316944721
5.02060983353294,0.475097820013762,5.7795060646534,14.2866937923431,15.418755715236
5.03059783345088,0.625878435149789,4.73040389478207,11.8902896404266,12.8120034560014
5.04058583360165,0.677936123013497,2.96761163234711,8.89219062566757,9.39879621603419
5.05057383351959,1.72449256137013,1.26858618021011,6.15334428906441,6.51512328590968
5.06056183343753,2.5073574078083,-0.637365217208862,2.37183882951736,3.50979985523465
5.0705498335883,2.87118227541447,-2.98446096897125,-0.304422126710415,4.15251342745546
5.08053783350624,3.4923860809207,-4.50857690513134,0.411542386561632,5.71781368913234
5.09052583342418,4.81362877696753,-4.44605789065361,1.05295036867261,6.63680324014362
5.10051383357495,6.01325962007046,-3.29775302946568,0.0848466074466705,6.85869267780057
5.11050183349289,5.5491047179699,-1.35247442901135,-0.776940520629287,5.76414666925825
5.12048983364366,2.97061242341995,1.33708981990814,-0.558331875018776,3.30515988105582
5.1304778335616,-0.324865819886327,3.9405549877882,-1.33810021877289,4.17420933928725
5.14046583347954,-2.49015372991562,5.85318507492542,-1.44629534304142,6.52322093288628
5.15045383363031,-3.69996866852045,6.02427226603031,-1.05365948975086,7.14785441958893
5.16044083354063,-3.30661799311638,5.1086129128933,-0.618068747743964,6.1166704523882
5.17042883345857,-1.8718251465261,3.36969950973988,-0.720545441284776,3.92145252401006
5.18041683360934,0.199268029667437,2.04473389148712,-0.935044700279832,2.25720026275141
5.19040483352728,2.03878113359213,1.0407541000843,-0.875822272896767,2.45089009570718
5.20039283344522,3.12934824854136,0.336506676077843,-0.564988966584206,3.19769756794724
5.21038083359599,2.77091539084911,0.102781772017479,-0.962475085258484,2.93511404985341
5.22036883351393,1.35619969010353,0.240418796539307,-2.27455460965633,2.65907455131954
5.23035683343187,-0.43369606141001,0.395358316898346,-4.00626833617687,4.04902290113018
5.24034483358264,-1.57580386072397,0.248217812776566,-4.39859107106924,4.67892864879795
5.25033283350058,-0.723254602476955,0.276590842008591,-2.6831083381176,2.7926099025756
5.26032083341852,0.466719271615148,0.399117491841316,-1.03149503409863,1.20045976865566
5.27030883356929,0.65364583902061,0.81741268157959,-0.816895202994347,1.32767998687608
5.28029670845717,0.403274935260415,1.35707092523575,-2.68925054579973,3.03913485512138
5.29028470860794,0.613694884255528,1.38020543396473,-4.877989372015,5.10650259614136
5.30027270852588,1.60675141900778,0.375566076636314,-4.70164377987385,4.98278579042186
5.31026070844382,3.25393691897392,-2.01906403005123,-3.10972265392542,4.93306193093551
5.32024870859459,3.99166257619858,-4.99919630527496,-1.92970337212086,6.68199737543152
5.33023670851253,4.01243890285492,-6.10030010282993,-1.82086242288351,7.52521542926179
5.34022470843047,4.52767449617386,-4.89451535761356,-2.84688124716282,7.2498861897733
5.35021270858124,6.02156851351261,-3.7835537391901,-4.46990956038237,8.39968200221077
5.36020070849918,8.90798746347427,-4.22096756994724,-4.52621532350779,10.8469089159409
5.37018870841712,11.5030168533325,-5.56069916188717,-3.3133156862855,13.1991981852706
5.38017570856027,11.5876354193687,-6.37563905596733,-2.76822508692741,13.5124068217353
5.39016370847821,9.28731096088886,-6.16892887294293,-3.24575520247221,11.612267442582
5.40015170862898,6.6126144272089,-5.76377939343452,-4.12490366399288,9.69343348336046
5.41013970854692,4.30006285607815,-5.37423788666725,-4.90385628461838,8.45108158101102
5.42012770846486,2.62458706498146,-4.82319452941418,-5.1558268404007,7.5322117029751
5.43011570861563,3.1576502341032,-5.00723388791084,-4.87426001787186,7.66821732418943
5.44010370853357,4.85727034807205,-3.91509036362171,-2.66294363021851,6.78323496329774
5.45009170845151,5.18281291007996,-1.96920306801796,-0.619155818223953,5.57876906774455
5.46007970860228,4.33844134837389,-0.270925474762917,-0.535978006124497,4.37981122529327
5.47006770852022,2.09916971504688,1.10188440084457,-0.51994654878974,2.4271397032295
5.48005570843816,0.0383460402488709,-0.0512338882684708,0.348419866338372,0.354248124016378
5.49004370858893,-0.633903811722994,-3.63345395922661,3.05633962154388,4.79009745188503
5.50003170850687,-2.47818097114563,-6.22248469054699,4.62244675219059,8.13804095754484
5.51001970842481,-5.40306349039078,-8.74783807396889,3.95637229084969,11.0168347429458
5.52000770857558,-7.97083666920662,-11.7582220888138,1.57846054315567,14.2927100853315
5.52999570849352,-7.76742840886116,-12.8559421026707,-1.2364206469059,15.0710625853023
5.53998370841146,-5.79111161828041,-10.9650332522392,-1.98595066308975,12.5583807887132
5.54997170856223,-4.61204192429781,-7.89509943902493,-1.60229701012373,9.28282724024442
5.55995970848016,-5.22035612761974,-5.78643559992313,-1.1201759532094,7.87335692175729
5.56994770863093,-4.77663344353438,-4.32721030890942,1.72763734012842,6.67275856677199
5.57993470854126,-1.97871268719435,-3.10448325634003,4.94701224446297,6.16652660208533
5.5899227084592,1.29680367350578,-2.51607092857361,12.2295439231396,12.5528505628495
5.59991070860997,4.17108643501997,-1.66263939857483,12.6762501490116,13.4480351597703
5.60989870852791,6.03752322614193,-0.477708747982979,7.38373528718948,9.54983974448733
5.61988670844585,4.85718322455883,0.94979072034359,3.53205300718546,6.08027382072176
5.62987470859662,3.50032864630222,3.25200850725174,3.5581561473012,5.95720866949773
5.63986270851456,2.7039174091816,4.1911479395628,3.96709520727396,6.37296907183401
5.6498507084325,3.10441250503063,4.02310130059719,5.0601874423027,7.17134701625123
5.65983870858327,2.75982234567404,3.87128828644753,7.46152079701424,8.84747336705478
5.66982670850121,2.45996981799603,3.81133093714714,8.59363764166832,9.71742264873793
5.67981470841914,2.11240693420172,4.64579526901245,9.09348043978214,10.4277065189783
5.68980270856991,0.961147182583809,6.0528242200613,9.70847304046154,11.4810684922144
5.69979070848785,-0.571179633066058,7.15424669086933,10.0500586080551,12.3496222578825
5.70977870863862,-1.97108280166984,7.5891397869587,10.033764756918,12.7340741836306
5.71976670855656,-3.38814133554697,7.71354807078838,9.84717074990273,12.9593633071901
5.7297547084745,-4.3207801258564,8.21743129491806,9.74225942194462,13.4575977286871
5.73974270862527,-5.09604958534241,8.9759999370575,9.2968635571003,13.8913630809098
5.74973070854321,-5.92621270537376,9.73421891570091,8.55613886296749,14.2507026904116
5.75971870846115,-6.66294199705124,10.6906292688847,8.04307901859283,14.9457509118857
5.76970670861192,-6.38263524949551,11.6036918735504,7.99547274291515,15.469689143842
5.77969370852225,-4.81444826424122,11.749970498085,7.44976438522339,14.7220823320027
5.78968170844019,-4.0706567054987,10.6039863967896,5.76982190608978,12.7399222268157
5.79966970859095,-3.65916709005833,7.59556236863136,1.44180906683207,8.55341363865527
5.80965770850889,-2.50098569691181,2.21729048788548,-10.0187280571461,10.5615443211147
5.81964570842683,-2.42634277313948,-6.62263246178627,-25.0757375478745,26.0487814215282
5.8296337085776,-2.01458974063397,-22.1867779827118,-29.701799633503,37.1282721190466
5.83962170849554,6.92896165788174,-37.9933245062828,-22.660191950798,44.7770869524037
5.84960970841348,14.2506234884262,-33.5426929235458,-2.82239953994751,36.5535013033673
5.85959770856425,6.83795383930206,-13.8437157511711,-1.0508727067709,15.476123931834
5.86958570848219,-0.233796459361911,0.633723571300507,-1.202712033391,1.37941385540944
5.87957370863296,-5.25449392676353,6.9284810167551,0.0741462028026581,8.69592164668707
5.8895617085509,-7.40252531468868,7.22724566996098,-0.742345249950886,10.3721520177204
5.89954970846884,-6.77289947211742,3.4101663351059,0.0618269965052605,7.58321991438959
5.90953770861961,-3.91793386459351,0.295112482309341,2.66657475113869,4.74846480959412
5.91952570853755,-2.03540261238813,-1.9332391834259,2.74547064721584,3.92656167780075
5.92951370845549,-3.33626688480377,-5.16585598468781,5.4201151406765,8.19721860873331
5.93950170860626,-7.90047010660172,-10.6372886288166,6.24649920523167,14.648825536507
5.9494897085242,-9.00283339440823,-13.8633086013794,1.85219355851412,16.6334889750393
5.95947770844214,-3.21720500260592,-9.52548676550388,5.89405652761459,11.6544072564545
5.96946570859291,-1.45155286699533,-3.69884161770344,8.78456560492516,9.64142250426624
5.97945270850323,-3.13098693072796,-0.181956580281258,6.47158543288708,7.19149535024901
5.98944070842117,-3.8255385017395,3.06636233389378,7.8662872838974,9.26907753899059
5.99942870857194,-3.28999085068703,5.62691420137882,10.9496199917793,12.7428560845541
6.00941670848988,-0.926503014564514,6.8041487467289,12.6982625770569,14.4360909002227
6.01940470864065,1.7041569685936,7.30770160317421,13.521289755106,15.4638911770671
6.02939270855859,2.55952714294195,5.9404442435503,12.988112565279,14.5096907277359
6.03938070847653,1.71968191087246,3.25344458341599,9.4739418053627,10.1635515870851
6.0493687086273,2.16395130962133,0.937723821401596,5.13506922483444,5.65074748856093
6.05935670854524,3.48386054813862,-1.34238915145397,0.733645470142365,3.80493477324887
6.06934470846318,4.476410202384,-3.70431110322475,-0.991046919822693,5.89426357119969
6.07933270861395,5.52610294103623,-5.0245188421011,-1.46136186361313,7.61046528183271
6.08932070853189,6.2402280664444,-4.3804983240366,-1.68960909605026,7.80922472372153
6.09930870844983,6.24766104698181,-2.67362883210182,-1.6144198961556,6.98483437820276
6.1092967086006,4.46259323179722,-0.409914375543594,-1.24878750801086,4.65212192315761
6.11928470851854,1.32229782611132,1.8685543602705,-0.607395898103714,2.36831094142172
6.12927270843647,-1.51813978940249,4.054994353652,1.02632141768932,4.44983856793979
6.13926070858724,-3.20874145030975,5.61998291194439,1.94490145504475,6.75743082060912
6.14924870850518,-4.00136544585228,5.57757130265236,0.841598519682884,6.91581630292218
6.15923570841551,-3.376498067379,4.37566501557827,-0.608503945469856,5.56034716355212
6.16922370856628,-1.90880249977112,2.48199920296669,-1.2033329346031,3.35437880659896
6.17921170848422,-0.198045870233327,1.00496212363243,-1.19564866997302,1.57440362634889
6.18919970863499,1.30107594162226,-0.17858215212822,-1.79717915296555,2.22588029749601
6.19918770855293,2.57722841888666,-0.712751029729843,-2.07598799005151,3.38523950235963
6.20917570847087,2.28938665688038,-0.250336259007454,-2.36919486477971,3.30409500689286
6.21916370862164,1.2790262375772,0.624943392276764,-3.53264737665653,3.80868216680777
6.22915170853958,0.0831519564427436,1.13093102931976,-4.15575942099094,4.30769725097917
6.23913970845752,-0.843008283376694,1.08735173106194,-3.73720578432083,3.98242436553994
6.24912770860829,-0.164049939159304,0.659443718791008,-2.18317373871803,2.28648769387005
6.25911570852622,1.30880406036973,0.135629675388336,-1.45045110538602,1.95835948855203
6.26910370844416,2.41394009783864,0.15715853869915,-1.85286891192198,3.04711811504021
6.27909175027162,2.73464686632156,0.766066526770592,-2.93856763511896,4.08660386544737
6.28907975018956,2.38345666229725,1.11776426911354,-4.48133268088102,5.19736521894396
6.2990677501075,1.99359092742205,0.435714045166969,-5.25694800317288,5.63912704442084
6.30905575025827,2.10366008430719,-1.32040654420853,-4.60626341342926,5.23321333658327
6.31904375017621,2.43149680137634,-3.32021452367306,-3.25600712567568,5.24762647115472
6.32903175009415,2.91904027372599,-4.17965640664101,-1.94981048494577,5.45821259428524
6.3390187502373,3.96090739130974,-3.91281053423882,-1.03935398429632,5.66384413133474
6.34900675015524,5.56418994963169,-3.78707317829132,-1.43028245061636,6.88097674330156
6.35899475030601,7.79835374772549,-4.2458153128624,-1.66149860680103,9.03337403554191
6.36898275022395,9.20243628680706,-4.77646533608437,-1.76766123890877,10.5177982950378
6.37897075014189,8.37479273200035,-5.11011272370815,-2.94117666274309,10.2421152851564
6.38895875029266,5.80219209194183,-5.04410526037216,-4.30675090134144,8.81229449551658
6.3989467502106,3.51921924591065,-5.04672013521194,-5.44698543548584,8.21729508769987
6.40893475012854,2.81622283369303,-5.30185871243477,-6.34415063023567,8.73436111428616
6.41892275027931,3.06418687731028,-5.15449659883976,-6.19554130554199,8.62222758196559
6.42891075019725,3.62724713981152,-4.40770775735378,-5.19755607962608,7.720064681618
6.43889875011519,4.52719063907862,-4.02388950526714,-4.15779015898705,7.34672449730692
6.44888675026596,5.81612015962601,-2.8902880525589,-2.67543913006783,7.0241720705483
6.4588747501839,5.69315672278404,-0.593608748316765,-1.17331851884723,5.84303698113654
6.46886275010183,4.65287215411663,0.602966632246971,-0.727718001455069,4.747879688008
6.4788507502526,3.16226544141769,0.54606328368187,0.295366251468658,3.22263076604763
6.48883875017054,1.65151799440384,-1.67679667711258,2.17921341955662,3.20751148247222
6.49882675008848,-0.270758701208979,-4.50874939799309,4.21775452494621,6.17993403208219
6.50881475023925,-4.32959041804075,-7.5224493688345,4.60511268138886,9.82545981127383
6.51880175014958,-7.61621999680996,-11.2848268318176,2.562191426754,13.8534814603135
6.52878975030035,-8.8526096534729,-14.4735684657097,-0.411458040475845,16.9712162064897
6.53877775021829,-7.29222168445587,-13.758694896698,-2.05535930559039,15.7067719226692
6.54876575013623,-5.01978493630886,-10.2184139800072,-2.08781383752823,11.5746789024048
6.558753750287,-5.40068133473396,-7.97628393530846,-1.92161638051271,9.82247798724224
6.56874175020494,-5.46758108317852,-6.51448294579983,-0.124365160614252,8.50578612742073
6.57872975012288,-3.86058495819569,-4.35850402235985,3.66661965876818,6.88075382893757
6.58871775027365,-0.672213453054428,-2.9767712956667,12.7545081138611,13.1145154504359
6.59870575019158,2.90747535824776,-1.87609434485436,13.8659234762192,14.2911502965289
6.60869375010952,4.65097765624523,-0.476530534029007,8.01992872238159,9.28320694700035
6.61868175026029,3.43474773734808,0.99565160214901,2.14050105124712,4.16780024502971
6.62866975017823,2.54264009177685,2.8395880150795,1.49898080259562,4.09575660632371
6.63865775009617,2.75854151308537,3.63061338186264,3.97184694707394,6.04702182722668
6.64864575024694,3.30826866209507,3.78958455741406,5.85452233314514,7.71887455576826
6.65863375016488,3.43426680386066,3.93354885399342,7.47501792490482,9.11827220719478
6.66862175008282,2.84602463006973,4.34972091972828,8.33828914940357,9.82583300354462
6.67860975023359,2.47549709916115,5.23370532095432,8.60769844114781,10.3736314629101
6.68859675014392,1.6185183557868,6.64790822088718,9.22669404566288,11.4867823342148
6.69858475029469,0.230618205294013,8.02992278337479,9.70357307374477,12.5973082466485
6.70857275021263,-1.47466354832053,8.93643943011761,9.94800130605698,13.4535241574175
6.71856075013056,-2.97990949630737,8.92448011994362,10.0455960130692,13.7637278843794
6.72854875028133,-3.62168029814959,9.08955052614212,9.98874470472336,13.9825433210641
6.73853675019927,-4.33608111977577,9.65348290085793,9.59218770861626,14.282905748893
6.74852475011721,-5.5655441647768,10.3018245112896,8.85485849261284,14.680306162873
6.75851275026798,-6.6425492477417,11.2516321885586,8.17575760424137,15.4131664436154
6.76850075018592,-6.54206133842468,11.8839325475693,8.30354967176914,15.9051990400128
6.77848875010386,-4.79135731726885,11.8526335716248,8.06268707156182,15.1145277908005
6.78847675025463,-3.35912248134613,10.8778629612923,6.51707384705544,13.1180737144336
6.79846475017257,-2.74514203369617,8.03758789837361,2.71979961633682,8.91829209895445
6.80845275009051,-1.98120330870152,2.75178271651268,-8.32028966546059,8.98469224773325
6.81844075024128,-1.55874811738729,-5.93588166117668,-25.0231757569313,25.7647765709549
6.82842875015922,-1.07960504740477,-21.0364552474022,-29.841513004303,36.5268927616396
6.83841675030999,5.5413062864542,-37.4330349469185,-23.5207009506226,44.5551518222768
6.84840475022793,14.1055330181122,-34.6110797953606,-4.01252894997597,37.5898030707832
6.85839275014587,8.67055776357651,-14.9583470821381,-0.954499483108521,17.3159403043693
6.86837975028902,1.11529586702585,-0.162623346447945,-1.21094432830811,1.65430268998042
6.87836775020696,-4.37668564707041,6.36980938196182,-0.0422961267828941,7.72862457220829
6.8883557501249,-6.76687917888165,7.0723353856802,-0.215650283396244,9.79056110107358
6.89834375027567,-6.68933983683586,3.80830675721169,0.107179462909698,7.69817869674204
6.90833175019361,-4.29275822192431,1.19729868113995,1.49010999172926,4.69911960596978
6.91831975011155,-2.4851721945405,-1.49870159804821,0.211394972205162,2.90978953719734
6.92830775026232,-2.84414796620607,-5.59490946650505,2.30458181619644,6.68605167042592
6.93829575018026,-6.9473704469204,-10.9738988006115,6.4149457937479,14.4859911828473
6.9482837500982,-10.1754708588123,-15.947415304184,1.85116298675537,19.0075528800052
6.95827175024897,-5.39133806884289,-12.8500352454186,2.97809510529041,14.2498765762096
6.96825975016691,-1.15768964231014,-4.29996520757675,8.85467664420605,9.91136945975332
6.97824775008485,-2.1789125803113,1.54739662528038,7.44599293112755,7.91106232303661
6.98823575023562,-3.66982422530651,5.27174262821674,8.25627434849739,10.4606379490192
6.99822375015356,-4.72488207668066,7.45508067369461,11.0339461970329,14.1297808606096
7.00821175030433,-2.51027984619141,8.48470225989819,13.362658302784,16.0266126883468
7.01819975022227,0.930686843544245,8.46615489184856,15.1852073550224,17.4107001314865
7.02818675013259,2.09433465242386,6.13643297195435,14.3746522879601,15.7693587585351
7.03817475028336,1.97224508196116,3.02763213157654,10.1808421111107,10.803048323452
7.0481627502013,2.79699601918459,0.393883649110794,6.04754710793495,6.67466531618355
7.05815075011924,4.18577434837818,-2.53956679522991,0.981900851279497,4.99341923782878
7.06813875027001,5.2291579413414,-5.29327850818634,-0.991398922204971,7.50638141607995
7.07812675018795,5.72736995100975,-6.45170197606087,-0.654499971047044,8.65191280329025
7.08811475010589,6.48796172976494,-5.76498976707459,-1.19328222870827,8.76086051131509
7.09810275025666,6.94914098381996,-3.93835409581661,-1.60118516206741,8.14647085063628
7.1080907501746,5.70886994540691,-1.20333300769329,-1.32552636623383,5.98299477925191
7.11807875009254,2.07615405097604,1.88933361053467,-0.041614629230462,2.80744170244836
7.12806675024331,-1.24113788813353,4.55295902609825,0.851666840314865,4.79533059940417
7.13805475016125,-3.84413410931826,6.20555583178997,0.535861646533012,7.31938781156673
7.14804275007919,-5.34610810160637,6.27439042389393,0.206140737310052,8.24568620728996
7.15803075022996,-5.36736857771874,5.39852429687977,-0.121544902324677,7.61363797381809
7.16801875014789,-3.61402366161346,4.02390003025532,-0.0554678571224213,5.40888298665857
7.17800675029866,-1.48249954819679,2.33914646208286,-0.791237035989761,2.88018525942349
7.1879947502166,0.47254214823246,0.55952181994915,-1.85441915497184,1.99379817212822
7.19798175012693,1.95009729087353,-0.587700721621513,-1.86273053348064,2.76007909713251
7.2079697502777,2.03302396506071,-1.17937813460827,-2.05130499243736,3.11961077682805
7.21795775019564,1.54730438545346,-0.749641698002815,-3.65815493702889,4.04205530391865
7.22794575011358,0.562055601216853,0.437106851935387,-5.20592227578163,5.25438822702962
7.23793375026435,0.00571731610223651,0.853145016431809,-5.26346004724503,5.33215723471378
7.24792175018229,0.937885496914387,0.656175709962845,-3.36277845293284,3.55224924395473
7.25790975010023,2.48121772259474,0.399320390224457,-1.58418452873826,2.97078083709669
7.267897750251,3.33289596498013,0.185961338281631,-0.957436539530754,3.4726735896057
7.27788595855236,2.96801625967026,0.211990218758583,-1.96274189472199,3.56460602532919
7.2878739584703,1.85690217509866,0.399266011118889,-3.79490260004997,4.24367585701205
7.29786195862107,1.01394366614521,0.197981459498405,-4.97442808449268,5.08057213158229
7.30784995853901,1.01669090732932,-0.711965163946152,-4.93872557044029,5.09230449362956
7.31783795845695,1.41527498692274,-2.25917643249035,-3.88507572859526,4.71176133294641
7.32782595860772,2.26074143975973,-3.4203369820118,-2.77890561103821,4.95297620860671
7.33781395852566,3.56705122411251,-3.63219797730446,-1.82923388153315,5.40951136195553
7.3478019584436,5.28482518851757,-3.47152701616287,-1.47572262525558,6.49296807044588
7.35778895858675,7.48798178672791,-3.65819703698158,-1.42503983706236,8.4547628788136
7.36777695850469,9.68986018359661,-4.39458835959435,-1.15654446512461,10.7024946777723
7.37776495842263,10.3643464493752,-5.11296265661717,-1.55245095849037,11.66071045988
7.3877529585734,8.33558773577213,-5.42966890633106,-3.47520169883966,10.537568703489
7.39774095849134,4.79414468497038,-5.37170311868191,-5.36511447608471,8.97905735571282
7.40772895864211,2.61299876064062,-5.47926732838154,-6.67148068606854,9.01991061616268
7.41771695856005,2.20384423077107,-5.48402637720108,-6.72225966095924,8.95099154556075
7.42770495847799,2.15685308218002,-5.0675753992796,-5.96803666949272,8.12094805634804
7.43769295862876,3.57649827808142,-4.42560842335224,-5.3915818977356,7.83878212542968
7.4476809585467,5.80864215552807,-3.43419020533562,-3.82168314009905,7.75494990833069
7.45766895846464,6.34547619402409,-1.3556903976202,-1.9046807974577,6.76245321782932
7.46765695861541,4.95435108482838,0.600445897579193,-0.690422121137381,5.03813583113989
7.47764495853335,3.18116071879864,1.2613566827774,-0.334306953549385,3.4383957508126
7.48763295845129,1.14631271481514,-0.618427255153656,1.19704651996493,1.76901257231934
7.49762095860206,0.0619053857401013,-3.82460236251354,3.94479772746563,5.4948015995799
7.50760895852,-2.34115731954575,-6.52956583857536,4.97643601834774,8.53704650800625
7.51759695843793,-5.81071382403374,-10.332065141201,3.37485499978066,12.3249994521859
7.52758395858109,-7.99517044186592,-14.7766167891026,0.60488620005548,16.8118125566963
7.53757195849903,-6.83124474406242,-15.8876509130001,-1.96443539455533,17.4052395187775
7.54755995841697,-4.33076161533594,-13.2343481719494,-2.44459456443787,14.1378750273769
7.55754795856774,-4.16504655361176,-9.86188234448433,-1.83237675994635,10.8610285314328
7.56753595848568,-4.95767113387585,-7.58654596209526,-1.11157879203558,9.13070589371671
7.57752395863645,-4.41741004228592,-5.38856824278832,1.6694993519783,7.16501271981643
7.58751195855439,-2.75827926546335,-4.24953414201737,6.98649065852165,8.63004615584799
7.59749995847233,0.458623655363917,-2.91360324025154,14.477971419096,14.775353664499
7.6074879586231,4.87369196087122,-1.1544280654192,12.2200831282139,13.2066653303605
7.61747595854104,4.40087353169918,0.159865214824677,4.0966005089879,6.0145972815444
7.62746395845898,2.55927658975124,1.93868118703365,0.627005412876606,3.27131734865077
7.63745195860975,1.9348661711812,3.96847778141499,2.69596782714129,5.17308085447606
7.64743995852768,2.51243337571621,5.09105080068111,5.79616829037666,8.11336468876486
7.65742795844562,3.39458759844303,5.18083128869534,7.79964949071407,9.95985792988154
7.66741595859639,3.55825993537903,5.06676146686077,9.47027560114861,11.3145660761471
7.67740395851433,2.6332596552372,5.47863407492638,9.79002064883709,11.5236275557439
7.68739195843227,1.61610374808311,6.186920170784,9.83609729290009,11.7319470881699
7.69737995858304,0.0724806965142489,7.21835907161236,9.95244402050972,12.2947591728946
7.70736695849337,-1.78505436658859,8.15526252865791,9.98515685319901,13.0153018937709
7.71735495864414,-3.45540390372276,8.13294195234776,10.1201526904106,13.4351051881013
7.72734295856208,-4.42484887003899,7.83136946618557,10.2667821478844,13.6497784198391
7.73733095848002,-5.02998774290085,8.08559178471565,10.1137207531929,13.8911813276035
7.74731895863079,-6.00447944104672,8.86457539558411,9.62603724002838,14.3977450751276
7.75730695854873,-6.8921259534359,10.0017395567894,8.67441166341305,14.9258705617537
7.76729495846666,-7.44155080139637,11.278225325346,7.71066890180111,15.5572960289454
7.77728295861743,-6.52627502560616,11.9655035448074,7.8049219250679,15.7061245075625
7.78727095853537,-3.9855463886261,12.0707697987556,7.49635383009911,14.7574857037533
7.79725895845331,-2.27097509041429,11.2313446891308,5.55214702427387,12.7329010035617
7.80724695860408,-1.76267663374543,8.50843727767468,0.55975366204977,8.70711536534657
7.81723495852202,-1.44642880573869,3.38618339538574,-11.6972520017624,12.2631194510202
7.82722295843996,-0.964979740083218,-4.88652981519699,-24.5121267700195,25.0130709494674
7.83721095859073,-0.611607757173479,-19.4394707250595,-28.4054789400101,34.4258379699091
7.84719895850867,4.30072066783905,-36.5594047951698,-23.981758582592,43.9341669086099
7.85718695842661,14.0560152876377,-37.0048433446884,-3.62378617286682,39.7499914837462
7.86717395856977,8.90024224162102,-18.4593557596207,-1.22907362043858,20.529801484287
7.8771619584877,1.67097007289529,-1.32204668819904,-2.19582769811153,3.05967444511398
7.88714995863847,-3.58318778514862,6.34898043036461,-0.683506180644035,7.32229253087922
7.89713795855641,-7.32972981870174,7.03130371928215,-1.43386679381132,10.2576871267529
7.90712595847435,-7.72997406899929,3.32947768270969,-0.47788387209177,8.43008266520968
7.91711395862512,-5.53098536610603,0.386071184277535,2.8265267971158,6.22335149370677
7.92710195854306,-4.65896904587746,-1.70923995316029,3.93696479737759,6.33460224510695
7.937089958461,-6.78982657670975,-4.54864728927612,7.00476788520813,10.763768402826
7.94707795861177,-11.8505145406723,-9.65578611910343,6.55805873572826,16.6336115993436
7.95706595852971,-11.7851929557323,-13.2686479389668,0.240919902920723,17.7484036896762
7.96705395844765,-2.74760517328978,-9.23644837081432,6.24848141133785,11.4849829187005
7.97704195859842,0.382579811811447,-3.09512420296669,9.08853603422642,9.60872771961137
7.98702995851636,-0.669972946196795,0.733720314502716,6.91664566755295,6.98764599411193
7.9970179584343,-0.971575106978417,3.28106273710728,9.65643223643303,10.2448042641213
8.00700595858507,-0.0265822463482618,5.22249796271324,12.51463778615,13.5606545013468
8.01699395850301,2.01381586164236,6.41960251629353,13.6825699961185,15.2472775435646
8.02698195842095,3.31990491360426,5.83880560219288,12.8767956125736,14.5232670134363
8.0369689585641,2.7096175673604,3.60390271604061,9.83476646661759,10.8190930119368
8.04695695848204,2.70962458401918,1.68161595225334,6.16645257711411,6.94226439881047
8.05694495863281,2.78667100578547,-0.0469841319322586,1.61219429969788,3.21976913195917
8.06693295855075,2.28399874001741,-1.97723480343819,-1.64528018474579,3.43992072563388
8.07692095846869,2.4904367351532,-3.50984382033348,-1.46142852187157,4.54500298123922
8.08690895861946,3.56591978788376,-3.49869610369205,-0.395848386660218,5.01132261033277
8.0968969585374,4.68244503200054,-2.89342099070549,-0.0739989260584116,5.50478449607426
8.10688495845534,5.07089837193489,-2.08390614330769,-0.378540555238724,5.49544975998943
8.11687295860611,4.03688552677631,-0.131384012103081,0.158623266220093,4.04213654587753
8.12686095852405,1.64327970609069,2.35238397359848,0.727722240686417,2.96034765040901
8.13684895844199,-0.677063426077366,4.42302512347698,0.732690619826317,4.53413736781559
8.14683695859276,-2.43254462242127,5.58291156470776,0.260956593342125,6.09543051990809
8.1568249585107,-3.49912909001112,5.49535886585712,0.05127949655056,6.51502133840581
8.16681295842864,-3.86362784922123,4.45833002686501,0.991970122084022,5.98233495458348
8.17680095857941,-2.1757797883451,3.33273692071438,1.79374318286777,4.36562340063231
8.18678895849735,-0.213231692276895,2.07658250570297,0.490439305901527,2.14433984488375
8.19677695841529,1.23308744162321,1.05196087360382,-1.36360387310386,2.11814584980025
8.20676495856606,1.60709318876267,0.814068658947945,-2.12884331122041,2.78880442888642
8.21675195847638,0.904727691113949,0.87049545943737,-2.8167213088274,3.08386340027761
8.22673995862715,-0.189480832200497,1.14679335594177,-3.44954879432917,3.64011330475597
8.23672795854509,-1.33614520221949,1.56677371323109,-3.64364214777947,4.18523499590657
8.24671595846303,-1.64635578006506,1.52420481383801,-3.33515474438667,4.01957023052036
8.2567039586138,-0.716852266788483,1.00618711531162,-3.20871513783932,3.43833426519559
8.26669195853174,1.47461311608553,0.194264384508133,-3.31113525956869,3.62985388140884
8.27667995844968,3.56975760787726,-0.121364223361015,-3.35919907987118,4.90327616109035
8.28666770854034,4.02720195293427,-0.0044222491979599,-3.77350734561682,5.51885249063876
8.29665570845828,3.50663077533245,-0.501585268378258,-4.11054758012295,5.42629234232891
8.30664370860905,3.00504930764437,-1.99039513170719,-4.17071835279465,5.51243010840371
8.31663170852698,3.25502333164215,-3.47480145692825,-3.77293578028679,6.0749046458997
8.32661970844492,4.42044065415859,-4.49258418560028,-3.51695257276297,7.21751783099341
8.33660770859569,5.64839628696442,-4.46602320849896,-2.72896512687206,7.70045417992527
8.34659570851363,7.74586446225643,-4.18457976222038,-2.38323768407106,9.12079743842653
8.35658370843157,10.2644339060783,-4.5898754221201,-1.9651325288415,11.414346484085
8.36657170858234,11.2756104505062,-5.36484082639217,-1.88227017402649,12.6278996326435
8.37655970850028,9.61147884249687,-5.98176417768002,-3.47818114757538,11.8431318624969
8.38654670864344,6.07599498152733,-5.99444620370865,-5.47200099349022,10.1387324245914
8.39653470856138,3.19395735025406,-5.87964723408222,-6.51589037060738,9.33961682695102
8.40652270847932,2.27168581947684,-5.81680603802204,-6.17665713787079,8.78332979827081
8.41651070863009,2.6613420778513,-5.36113836944103,-5.19143521428108,7.92310203491741
8.42649870854802,3.44041982889175,-5.21568244814873,-4.20875536769629,7.53348881621726
8.43648670846596,4.86754975318909,-4.44637130141258,-3.21602474212647,7.3352623328526
8.44647470861673,5.25475237369537,-2.16714242756367,-1.97907916143537,6.01877754510261
8.45646270853467,4.56887807071209,-0.23752267062664,-1.01271436214447,4.6857928062804
8.46645070845261,3.61242854118347,0.0772037118673325,-0.475016105175018,3.64434365537317
8.47643870860338,2.44631890833378,-1.30236496031284,1.84367796599865,3.32863021878835
8.48642670852132,1.14524208962917,-3.95547591269016,4.26468954026699,5.92831730043129
8.49641470843926,-1.96492860719562,-6.48882360935211,4.87062304973602,8.3479785072364
8.50640270859003,-6.61930364191532,-9.81820013523102,3.69961754322052,12.4056198783224
8.51639070850797,-9.92495509028435,-14.4604239249229,1.01223255157471,17.5679597099695
8.52637870842591,-9.78209416329861,-16.7814785170555,-1.87929277181625,19.515100019222
8.53636670857668,-7.72410054087639,-14.9945717525482,-3.04448848485947,17.1396563951068
8.54635470849462,-5.94530737280846,-10.9136970376968,-2.79005742073059,12.7373420774814
8.55634170863777,-5.18601952314377,-7.57032578587532,-1.62137632861733,9.31844902318609
8.56632970855571,-4.35426596045494,-5.70657374382019,0.205528753101826,7.18100675507175
8.57631770847365,-3.57226284742355,-4.29272576987743,5.66833295345306,7.95729570002613
8.58630570862442,-0.978912193179131,-2.49900290608406,14.4045561182499,14.6524578678931
8.59629370854236,2.55221169143915,-0.147757970094681,15.1006554472446,15.3155284555266
8.6062817084603,4.789147362113,0.792587158083916,7.29192113757134,8.7599224160807
8.61626970861107,2.88955861240625,2.52944701910019,1.52140224337578,4.13065563598745
8.62625770852901,2.23491984307766,3.83981857180595,1.35666805207729,4.64538712842056
8.63624570844695,3.73728238284588,5.04518991887569,5.14742789983749,8.11894296757161
8.64623370859772,4.5989877229929,4.85094599962235,7.28185106277466,9.8847215473135
8.65622170851566,4.30075779765844,4.88764780282974,8.85100810110569,10.9875367159553
8.6662097084336,3.98910938948393,5.72088012635708,9.26933720469475,11.6000894546445
8.67619770858437,3.23426074594259,6.6672414547205,9.76264573931694,12.2565004393461
8.68618570850231,1.80312796398997,7.88452299535275,10.5186474537849,13.2687195153031
8.69617370842025,-0.0271685758978128,9.36380306661129,10.9168592119217,14.382606198277
8.70616170857102,-2.08686600387096,9.55329670786858,11.1064610266686,14.7977688941135
8.71614970848896,-3.35945869624615,8.935497443676,11.2508217644691,14.7550014460717
8.72613670863211,-4.05992297172546,9.0463396024704,10.983474200964,14.7971598715027
8.73612470855005,-5.22383639037609,9.74755816876888,10.2253347444534,15.0618998643291
8.74611270846799,-7.03586220860481,10.6268232822418,9.12725629627705,15.6760817039335
8.75610070861876,-8.04219959735871,11.5444081234932,8.56458516597748,16.4712614073972
8.7660887085367,-5.81202944755554,12.0728841519356,8.82500260949135,16.0441543592313
8.77607670845464,-3.2048726400733,11.814046626091,7.66575994670391,14.4432261591042
8.78606470860541,-1.97293929263949,10.0623307442665,4.89831253945828,11.3638222088198
8.79605270852335,-1.46212580233812,6.19412744879723,-2.32148553192616,6.7745348023867
8.80604070844129,-1.60291930004954,-0.541045203208923,-18.897049087286,18.9726261862106
8.81602870859206,-2.9068385964632,-12.1510216641426,-29.726821038723,32.2456342343675
8.82601670851,-2.17652633160353,-31.2646691608429,-29.4601248550415,43.0129720094271
8.83600470842794,8.49703169882298,-41.822364320755,-10.9701998519897,44.0642143906068
8.84599270857871,9.7719404733181,-28.90283608675,0.836426072716713,30.521539329574
8.85598070849665,3.31812355935574,-6.83845669984818,-1.66775395810604,7.78176311998948
8.86596870841458,-1.90221005648375,5.00880854308605,-0.0520715019106865,5.35810391478095
8.87595670856535,-6.04229396939278,8.38232336103916,0.377899992763996,10.3399937014543
8.88594470848329,-7.8337042593956,5.74503731310368,-1.36940533429384,9.81058852068614
8.89593170862645,-6.05436730027199,2.44057635784149,0.117812332212925,6.5288326759597
8.90591970854439,-3.60794811218977,0.355589064359665,0.661726764142513,3.68532433760292
8.91590770846233,-2.65098665893078,-1.87095405757427,1.99168970525265,3.80723354069487
8.9258957086131,-5.43607570052147,-5.45812672019005,7.80760930538178,10.9681734751478
8.93588370853104,-9.29832594573498,-10.2305492913723,4.75335772454739,14.6190770520523
8.94587170844898,-8.36578568100929,-13.688265184164,1.13512874543667,16.0823969320899
8.95585970859975,-3.56050175786018,-13.2569967770576,9.00957815766335,16.419428579999
8.96584770851769,-1.69805890738964,-8.14051468133926,9.37881053030491,12.5344912259502
8.97583570843563,1.42407811626792,1.59590044856072,9.92008903741837,10.1480571161803
8.9858237085864,3.88913574278355,6.89751416265965,13.1194036066532,15.3238320743916
8.99581170850433,4.8677497279644,8.31675502359867,14.1975202453136,17.1590495847743
9.00579970842227,3.47271458566189,7.60440452814102,13.6329423379898,15.9919927342416
9.01578770857304,0.563855081833899,5.61220669984818,11.5682343578339,12.8700754758043
9.02577570849098,-0.65251856893301,3.84510270059109,9.14114109456539,9.93836283155568
9.03576370864175,-0.872135164886713,2.37611899137497,6.35048082590103,6.83631245095932
9.04575170855969,-0.314251076951623,0.725120229721069,2.53057202339172,2.65110313878749
9.05573970847763,0.474147208929062,-2.05883094370365,-2.11472491666675,2.98925775129179
9.06572670862079,2.19201633676887,-4.35622419297695,-2.64914303183556,5.54973725893958
9.07571470853873,4.52453074067831,-4.55931728839874,-2.06551372647286,6.74722902485772
9.08570270845667,6.23079592287541,-3.5168897151947,-1.6541398859024,7.34353524288515
9.09569070860744,5.67602087259293,-1.0770740801096,-0.498352342844009,5.79876336625083
9.10567870852538,2.79933519780636,2.28203787624836,-0.330579353570938,3.62674194385499
9.11566670844331,-0.0376300989417359,4.59261133432388,-0.460938348770142,4.61583784960797
9.12565470859408,-1.579740498662,5.43029865145683,-0.223884697929025,5.65984521388116
9.13564270851202,-2.69905047923327,4.88716306865215,-0.0494693447649479,5.58316071460587
9.14563070842996,-3.09976075261831,2.97699582874775,0.562335938662291,4.33442529013542
9.15561870858073,-1.20249349370599,1.33596423089504,-0.553332615271211,1.88068285783624
9.16560670849867,1.00127940103412,0.0544293916225433,-3.1148831140995,3.27231108119474
9.17559470841661,2.59792756229639,-0.875640424489975,-4.41723053276539,5.1988363459081
9.18558270856738,2.67647701084614,-0.932079504132271,-5.17302408635616,5.8985150325851
9.19557070848532,0.994578784257174,-0.519645563364029,-5.04757324397564,5.17080401126529
9.20555870863609,-0.481325543224812,0.349900892972946,-4.10287720263004,4.14580586295659
9.21554670855403,-0.995260569602251,1.08308501780033,-2.44604657426477,2.8542530722872
9.22553370846435,-0.0776694060489535,1.41401111125946,-0.484214360117912,1.49663739962144
9.23552170861512,1.46931188419461,1.37096390962601,1.0792679554224,2.28106088786209
9.24550970853306,2.19949828773737,1.33308564662933,1.43504968553782,2.94521266786814
9.255497708451,1.98379494085908,1.53162142217159,-0.0219068858027458,2.50634922943284
9.26548570860177,1.46132692649961,1.56497861802578,-2.63387361288071,3.39439606846637
9.27547370851971,1.24452371835709,0.926573181152344,-4.94974991083145,5.18723445829857
9.28546208352782,1.26975269973278,-0.771875150799751,-5.60411239922047,5.79777017050499
9.29545008344576,1.5936881545186,-3.34162819683552,-5.04288494646549,6.25595792209534
9.30543808359653,1.89348221004009,-5.54229797422886,-4.00574384093285,7.09565539143856
9.31542608351447,2.90290692865849,-5.72886508405209,-3.05096076786518,7.11021275313032
9.32541408343241,4.27559518218041,-4.64663025140762,-2.58047011524439,6.82134245371468
9.33540208358318,6.31541507363319,-4.14400008559227,-2.44420660167933,7.93922856286144
9.34539008350112,8.79481226563454,-4.77774412214756,-2.20335160285234,10.2484301222316
9.35537808341906,10.0066406929493,-5.78792313158512,-2.03543886512518,11.7377989209472
9.36536608356983,8.11688608288765,-6.41303667783737,-3.55409701019526,10.9381207102382
9.37535408348776,5.13858047783375,-5.99690729677677,-5.1009542298317,9.40147012483401
9.38534208363853,3.21056519687176,-5.79836275041103,-5.88112599492073,8.86094703950152
9.39532908354886,2.68714817941189,-5.88174112200737,-6.21234269499779,8.96709795443997
9.4053170834668,2.91540476739407,-5.17763403117657,-5.18123416185379,7.88369624976144
9.41530508361757,3.65878760576248,-4.71532217144966,-4.83014219105244,7.67797261719725
9.42529308353551,5.20766708493233,-2.89912845790386,-4.25120439916849,7.32103005911225
9.43528108345345,5.42390647530556,-0.159179336428642,-2.30079705968499,5.89387534851752
9.44526908360422,5.04214761257172,1.05455762207508,-1.11911161378026,5.27140921664569
9.45525708352216,4.48458928763867,1.11135162770748,0.0704453538358212,4.62077981157819
9.4652450834401,3.68859291046858,-0.811525120139122,2.34273606777191,4.44440130535208
9.47523308359087,2.32582665100694,-3.37683896005154,4.74188197910786,6.26880815438182
9.4852210835088,-0.465053144060075,-5.87250135183334,4.86824674129486,7.64214452154712
9.49520908342674,-4.24461721837521,-9.39426822960377,3.57536654949188,10.9111088741473
9.50519708357751,-7.24332551300526,-13.5038884413242,1.05596278108656,15.3602026327169
9.51518508349545,-7.31278692662716,-15.2475971460342,-1.14554307505488,16.9492873094655
9.52517308341339,-5.23298202037811,-13.1956419432163,-1.61709178134799,14.287198918909
9.53516108356416,-4.69436604291201,-9.3133334094286,-1.11667420193553,10.4891473921045
9.5451490834821,-6.52694628596306,-6.94505202591419,-0.514138509482145,9.54458557871605
9.55513608362526,-5.41225180506706,-5.04669323801994,0.377902039289475,7.40974980626384
9.5651240835432,-3.26177277266979,-3.06098055660725,6.54492062687874,7.92746804475429
9.57511208346114,0.842583556249738,-1.71953748464584,14.8601337397099,14.9830014006683
9.58510008361191,4.94107205808163,-0.549304980039597,11.630286179781,12.6482997145014
9.59508808352985,4.93740994691849,0.0527272671461105,4.66480807542801,6.79273373018615
9.60507608344778,3.38079781740904,1.96114034235477,2.07145800590515,4.42343798360932
9.61506408359855,2.47050240755081,3.98683453023434,3.17616251885891,5.66447173736328
9.62505208351649,2.59217799514532,4.96174313485622,5.6692661690712,7.96736221032932
9.63504008343443,2.84525338232517,5.33980597257614,7.72264575362206,9.8106193520251
9.6450280835852,3.03799281299114,5.26460142374039,9.19306904733181,11.0207961142399
9.65501608350314,2.46601847022772,5.29640267550945,9.10878494203091,10.8214181841761
9.66500408342108,1.22357665300369,6.18262422144413,9.41474050104618,11.329577255635
9.67499208357185,-0.0359177646785975,7.58181030213833,10.1301257014275,12.6532440215998
9.68498008348979,-1.55452174991369,8.61146872580052,10.4694326090813,13.6448873444411
9.69496808364056,-3.30032580435276,8.66710732161999,10.2992985141277,13.859525591537
9.70495508355089,-3.91920446455479,8.60054846584797,10.1561423027515,13.8736016961035
9.71494308346883,-4.58844987094402,9.04872058868408,9.98319218873978,14.2336693367366
9.7249310836196,-5.50611832737923,9.95021389245987,9.46996160566807,14.7987928005507
9.73491908353753,-6.63159916698933,10.9537504649162,8.41315105140209,15.3213533140181
9.74490708345547,-6.99325588703156,11.6381799209118,7.87864654362202,15.6979594575965
9.75489508360624,-4.88555917739868,11.7430286836624,7.97414794743061,15.0118102382322
9.76488308352418,-2.30676575124264,11.1848230719566,7.22082776606083,13.5115428064006
9.77487108344212,-1.06924597397447,9.45413085401058,4.78203480899334,10.648555492274
9.78485908359289,-0.793429888039827,5.29431346535683,-3.36895808279514,6.32527980569431
9.79484708351083,-0.976314859986305,-1.84893519759178,-20.9092362070084,21.0135173360195
9.80483508342877,-0.822354455888271,-14.8734829330444,-30.927530400753,34.3279608788548
9.81482308357954,2.17681986182928,-34.6633422088623,-29.7539404249191,45.7338256502688
9.82481108349748,13.5646269786358,-41.4268773651123,-9.83843617916107,44.6875832837827
9.83479908341542,12.2938048231602,-23.564267385006,0.910549471378326,26.5940112574587
9.84478708356619,4.08138459205628,-3.79789111196995,-0.518439575135708,5.59914785299706
9.85477508348413,-2.11962298303843,5.46395464003086,-0.17090680450201,5.86317414327466
9.8647630836349,-6.41643040180206,7.47637214004994,-0.979456568956375,9.90081080761351
9.87475008354522,-7.94260572731495,3.93393710911274,-0.660106208324433,8.88800242598409
9.88473808346316,-5.96604920089245,0.363466433286667,2.60205540418625,6.51893727857926
9.89472608361393,-5.01892656505108,-2.24195521295071,2.575378652215,6.07030166009376
9.90471408353187,-5.55583544790745,-5.1843752861023,3.6310969465971,8.42199024381767
9.91470208344981,-8.80440403819084,-8.88533944308758,7.11077615082264,14.3885344963866
9.92469008360058,-10.5521625244617,-11.2683797836304,2.56993811041117,15.6502108222902
9.93467808351852,-4.81026955157518,-7.42916464447975,2.96476930081844,9.33386508798337
9.94466608343646,-0.531811462976038,-1.70453002095222,8.71035917580128,8.89149048225018
9.95465408358723,-2.19773272097111,0.733726161718369,7.23231579065323,7.59439101501556
9.96464208350517,-4.04825397580862,2.06517107963562,7.93736720681191,9.14631565257764
9.97463008342311,-3.71285359293222,3.97021206557751,11.4131732153893,12.6415342618167
9.98461808357388,-0.64054347127676,5.59400665640831,13.9173789739609,15.013215642073
9.99460608349182,1.70472955718637,5.87790651798248,14.7457048988342,15.9653280849718
10.0045940836426,2.43611566320062,4.41983780622482,13.4011095929146,14.3198939967841
10.0145820835605,2.36642474636436,2.09414695680141,10.2859808957577,10.7604284554463
10.0245690834709,2.58395008563995,0.103309190869331,6.28727476358414,6.79833029403535
10.0345570836216,3.056105440557,-1.89306121051312,1.77619583487511,4.00977965159922
10.0445450835396,3.15937136203051,-3.68237878203392,-0.835539050102234,4.92337957117241
10.0545330834575,3.84937613815069,-4.3546553850174,-1.02080340027809,5.90108123628579
10.0645210836083,4.71390626817942,-3.86045865833759,-0.913227569237352,6.16100949123843
10.0745090835262,4.7759364554286,-2.96641704618931,-1.7212004327774,5.87977295888264
10.0844970834441,3.59917699635029,-1.05551188766956,-1.89001773476601,4.20004136096287
10.0944850835949,0.828795748651028,1.97973624229431,-1.03791820049286,2.38401597581685
10.1044730835129,-1.94888063147664,4.63885462403298,-0.19296926278621,5.0353098291006
10.1144610834308,-3.80026391208172,6.3251027405262,0.542191257476807,7.39884462868136
10.1244490835816,-4.41225776821375,6.72639715075493,0.739683231934905,8.07833946590834
10.1344370834995,-4.21539838939905,5.79265528321266,1.00897565245628,7.23480965048351
10.1444250834174,-2.69042086601257,3.49420368790627,0.475203216075897,4.43549793658192
10.1544130835682,-0.245532113537192,1.56209067821503,-0.271044319421053,1.60433111570983
10.1644010834862,1.56699736922979,-0.154060099124908,-1.6460153259337,2.27784585135256
10.1743880836293,3.5344228836894,-1.39099997878075,-2.57933195471764,4.59129386930774
10.1843760835473,4.00475127607584,-1.94532596290112,-3.53038275003433,5.6820707710225
10.1943640834652,2.68847725152969,-1.63379099071026,-4.90176064252853,5.82446910284194
10.204352083616,1.14088240563869,-0.619442916512489,-5.25835367381573,5.41623536686182
10.2143400835339,0.255689001213759,0.207931666374207,-4.1063118571043,4.1195156888909
10.2243280834518,0.743370705395937,0.631476486325264,-2.05232796281576,2.27231437644047
10.2343160836026,2.03365619525313,0.834558472037315,-0.692269110381603,2.3046652435721
10.2443040835205,2.4217272734642,1.29207035243511,-0.740348279625178,2.842942904426
10.2542920834385,1.87160953044891,1.78122034728527,-2.01769198089838,3.27822346551175
10.2642800835893,1.09247608467937,1.66661842882633,-3.71126899749041,4.21243855203056
10.2742680835072,0.750908131822944,0.901207374930382,-4.75240550547838,4.89503787968673
10.2842553751543,0.961908416971564,-0.52119039773941,-4.25283138692379,4.39129616843827
10.2942433753051,1.30817753121257,-2.36176232278347,-3.01902619957924,4.05015665329563
10.304231375223,2.34449754148722,-3.54861963093281,-2.15062550514937,4.76597944503334
10.314219375141,3.85579316496849,-3.84605053424835,-1.53567003428936,5.65840331694587
10.3242073752917,5.65952646195889,-3.88260089457035,-1.70562754333019,7.07205732419484
10.3341943752021,8.01391895413399,-4.78157755672932,-1.70495072811842,9.48647658088908
10.34418237512,10.2085871493816,-5.76322741627693,-1.16053343564272,11.7803599135803
10.3541703752708,9.7840173125267,-6.43737571299076,-2.30259259343147,11.9360267046179
10.3641583751887,6.4894615405798,-6.48699050724506,-4.52994146168232,10.2330116082227
10.3741463751066,2.78139886379242,-5.97140583515167,-6.57061329245567,9.30412953083653
10.3841343752574,1.44740309804678,-5.48090396404266,-7.9056776368618,9.72805339671153
10.3941223751754,2.01422458201647,-5.32139075160027,-7.25986611664295,9.22387967341274
10.4041103750933,3.14650310218334,-5.32907516241074,-5.70109958052635,8.41439601431678
10.4140983752441,4.66338778674603,-4.87871851980686,-4.68082067549229,8.21335267970361
10.424086375162,5.37324970722199,-2.66455336868763,-2.75328837454319,6.59941315149616
10.4340743750799,4.72850062608719,-0.127621913552284,-1.9182112544775,5.10436479305014
10.4440623752307,4.11500549733639,1.03442390441895,-2.21266534030438,4.78530991319541
10.4540503751487,3.30659372717142,0.727815796136856,-0.763309418410063,3.47072314913034
10.4640383752994,2.6540365666151,-1.66540571630001,1.69404771745205,3.56192138681068
10.4740263752174,1.25062382608652,-4.77676646769047,3.88345224916935,6.28193912839068
10.4840133751277,-2.11704626128078,-7.36290224254131,4.41127338945866,8.84044949208856
10.4940013752785,-6.35957383096218,-10.7772499215603,3.55720392823219,13.0094963380702
10.5039893751964,-9.19838065803051,-14.6525505673885,0.327546987533569,17.303604592366
10.5139773751143,-8.6452936989069,-14.727456908226,-2.70538739919663,17.2904080664323
10.5239653752651,-6.22920723438263,-11.1766895949841,-2.93704677432776,13.1281246500061
10.533953375183,-5.00142877221108,-7.54416124999523,-1.83278270289302,9.23513677026249
10.543941375101,-5.52018906712532,-5.84776646018028,-0.506033245325089,8.05760073191726
10.5539293752518,-5.52064748883247,-4.36020146906376,1.56173648312688,7.20610341235175
10.5639173751697,-3.71706914305687,-2.86147648215294,5.56630254864693,7.27931141903224
10.5739053750876,0.861061854064465,-1.44805360078812,13.1749451386929,13.2822236901374
10.5838933752384,4.59528877437115,-0.0633838176727295,13.6646997356415,14.4168205681227
10.5938813751563,5.259368750453,1.08781541526318,6.8756829982996,8.72463860134229
10.6038693753071,3.7765613463521,2.36662194371223,1.95816995680332,4.86803292993671
10.6138573752251,3.81716616600752,3.48446515023708,2.60344879567623,5.78707184626537
10.623845375143,3.99363250315189,4.06723316073418,4.70175487697125,7.38904493673776
10.6338323752861,3.84079798042774,3.98593756735325,6.64970623970032,8.6520529639852
10.6438203752041,3.50901380807161,4.26715414166451,7.89171448588371,9.63332444697409
10.653808375122,2.8799794113636,4.82295654773712,8.76025405168533,10.40659609677
10.6637963752728,1.81066444024444,5.84227417051792,9.57949281871319,11.3656216663429
10.6737843751907,-0.0184775669127703,7.20257509768009,10.14715747118,12.4435619580217
10.6837723751087,-1.72118245258927,8.39083573758602,10.6451835393906,13.6634009674592
10.6937603752594,-3.15133670300245,8.49725155413151,10.7761132228374,14.0804411571972
10.7037483751774,-3.83780712962151,8.30755326032639,10.623930079937,14.02184349794
10.7137363750953,-4.06633327424526,8.90698992848396,10.351861474514,14.2488796707277
10.7237243752461,-4.75325978368521,9.73027496874333,9.72779399514198,14.5568439419564
10.733712375164,-5.70929269909859,10.59343334198,8.62959743320942,14.8083356578046
10.743700375082,-5.85400193095207,11.5025233483315,7.69570529222488,15.0266849947445
10.7536883752327,-4.23962661981583,11.8221450197697,7.60422384917736,14.6820219006891
10.7636763751507,-1.87990424439311,11.4788772082329,7.00425216078758,13.5778573516469
10.7736643753015,-1.03902566313744,9.83406597018242,4.36993006646633,10.8113235369387
10.7836513752118,-1.53201771721244,6.03420902431011,-3.22288761913776,7.01040380010381
10.7936393751297,-2.23128229022026,-0.452157585024834,-18.8262498307228,18.9634055440772
10.8036273752805,-3.0605674508214,-11.0214775943756,-27.3524117732048,29.64784092131
10.8136153751984,-2.89554996192455,-28.0663825321198,-27.2077002024651,39.1964920411061
10.8236033751164,6.55507139325142,-39.2123660588265,-14.7019396591187,42.3878006346448
10.8335913752671,10.4433376550674,-28.7427229499817,-0.805264213979244,30.5917615447602
10.8435793751851,3.8990295240283,-9.00328947722912,-1.6861913985014,9.95514410103686
10.853567375103,-1.13537308596075,3.06376675486565,-0.647030664682388,3.3308238400707
10.8635553752538,-5.41453689694405,7.66753106832504,0.306979406476021,9.39161747773506
10.8735433751717,-7.82068134069443,6.40634103119373,-0.474428460001946,10.1207383329628
10.8835313750897,-7.55093466460705,3.01583420455456,0.582908343672753,8.15178829433449
10.8935193752404,-6.37054379224777,0.244510093331337,2.01050721466541,6.68474028328021
10.9035073751584,-5.97789449036121,-2.6861687707901,2.63401862382889,7.06319894337802
10.9134953753091,-7.95122452318668,-6.25209440588951,6.54380146980286,12.0470740661156
10.9234833752271,-11.7825090837479,-10.8683694219589,5.72992050647736,17.022954009552
10.933471375145,-11.1691782617569,-13.1646142780781,0.546517027616501,17.2729931683815
10.9434593752958,-2.95246091187,-9.36350310444832,6.01225331425667,11.5125759818524
10.9534463752061,0.336118713319302,-4.09918410122395,8.58745362639427,9.52158841111307
10.9634343751241,0.534934570491314,0.299494970440865,8.39455398201942,8.41691088161591
10.9734223752748,2.01429270207882,4.59131734549999,11.0149275434017,12.1023220434397
10.9834103751928,3.92913654506207,7.48914245903492,14.1273945879936,16.4653772081399
10.9933983751107,4.79589504897595,7.88007326424122,14.9829088962078,17.5949914169534
11.0033863752615,2.96744527906179,6.05671788096428,12.5006360435486,14.204065068391
11.0133743751794,1.21744314305484,4.03971674859524,9.32159260153771,10.2319874826201
11.0233623750974,1.30599929720163,2.64970670342445,5.79953511714935,6.50854725368974
11.0333503752481,1.19239710643888,0.829461454153061,1.27469535112381,1.93252824081465
11.0433383751661,0.725956820100546,-2.02176895201206,-2.24350063204765,3.1061001410078
11.053326375084,1.25354933425784,-4.07794058203697,-2.4443735396862,4.91690424205723
11.0633143752348,2.81189326286316,-4.35936414778233,-2.61733534812927,5.81044265261022
11.0733023751527,3.72267340689898,-3.36154849112034,-2.92635250926018,5.80705127935337
11.0832903753035,3.56850718080998,-1.32117720723152,-1.45787750780582,4.07494288796378
11.0932783752214,1.50676987856627,1.26075208067894,0.101943263020366,1.96729349736284
11.1032663751394,-0.60523228213191,3.7586714977026,0.815346860289574,3.89341855514669
11.1132533752825,-2.14319223225117,5.19646089613438,1.63806530535221,5.8548899847934
11.1232413752005,-2.3187978592515,5.67752594590187,1.46750085532665,6.30592444760027
11.1332293751184,-2.14753130480647,4.82084687232971,0.993849051743746,5.37030643531884
11.1432173752692,-0.58518360491842,2.76310760378838,0.876638544201851,2.95731273604244
11.1532053751871,1.87141043275595,1.6188145172596,-0.366249123215675,2.50137479586216
11.163193375105,3.21090404301882,0.423679305911064,-2.64162935972214,4.17942754475752
11.1731813752558,4.34022591859102,-0.621602293252945,-3.70951980292797,5.74321230703701
11.1831693751737,3.76838898539543,-0.680009545683861,-4.17128670215607,5.66240242998101
11.1931573750917,1.72072549268603,0.0886490517854691,-4.52761953234673,4.84438783596541
11.2031453752425,-0.109017005246133,0.876792910695076,-4.20967922776938,4.30140090161228
11.2131333751604,-1.12306023851037,0.735565111041069,-3.24612503886223,3.51278352589967
11.2231213750783,-0.743865526020527,0.561059637665749,-1.4967348870635,1.76304825798173
11.2331093752291,-0.045812240280211,0.791692534089089,-0.776610518395901,1.10995483114181
11.243097375147,0.303763364776969,1.35655987858772,-1.59803555935621,2.11807566789798
11.2530853752978,0.261639073044062,1.6524792766571,-3.52374411374331,3.90075830364625
11.2630733752158,0.435156513154507,1.00374941110611,-5.05028752148151,5.16742470877598
11.2730613751337,1.47632401138544,-0.838945637941361,-5.08879786849022,5.36462730451656
11.2830484586302,2.72831140816212,-3.81948370993137,-4.21208331048489,6.30664607892373
11.2930364585482,4.16357422471047,-6.21816242873669,-3.29328634142876,8.17597879409353
11.3030244584661,6.03768870234489,-6.51110617876053,-2.7889014261961,9.30731753528133
11.3130124586169,7.98876072406769,-5.25990026235581,-3.05112215101719,10.0397308259119
11.3230004585348,10.1014720058441,-4.76155259728432,-3.31679302543402,11.6496023878554
11.3329884584527,11.3634648656845,-5.49110969424248,-3.19782879173756,13.0194749667226
11.3429764586035,10.2506952881813,-6.29436217367649,-3.83947417080402,12.6268488140479
11.3529644585215,7.11857107400894,-6.37674008667469,-5.10660965681076,10.8357893323815
11.3629524584394,4.2350388944149,-6.01129963338375,-6.0767475181818,9.53929442460266
11.3729404585902,3.20139383912087,-5.83794021427631,-6.48194319069386,9.29225785188982
11.3829284585081,3.15175360947847,-5.31427702903748,-5.82314266562462,8.49023448795343
11.392916458426,3.74105208277702,-4.98506943225861,-4.89229604691267,7.92344297266831
11.4029044585768,4.66811701476574,-4.458249335289,-3.73311273336411,7.45677103572018
11.4128924584948,4.78752768337727,-2.09670043587685,-2.32851520076394,5.72176171096792
11.4228804584127,3.58830322176218,0.0617857736349106,-1.2865318697691,3.81246662215738
11.4328684585635,2.47014397323132,0.508344064950943,-1.18858530655503,2.78796699546827
11.4428564584814,1.78298518314958,-1.43707194507122,1.05255319654942,2.52033334505738
11.4528434586246,0.903229049742222,-4.4125749796629,4.27548174619675,6.21018396100364
11.4628314585425,-2.10581083640456,-6.67212797284126,5.37493896782398,8.82279433470613
11.4728194584604,-6.35425988137722,-9.5996639585495,3.76969057559967,12.1136589762515
11.4828074586112,-8.7472305482626,-13.2787835025787,0.247084658928216,15.9028671754968
11.4927954585291,-8.38657194793224,-14.4681562829018,-2.07216201066971,16.8509937589086
11.5027834584471,-5.7391246086359,-12.537132024765,-2.5275490128994,14.0180503170893
11.5127714585979,-4.27933272242546,-9.26521140933037,-1.72495799973607,10.3504739557984
11.5227594585158,-4.98943320930004,-7.57569762289524,-1.22230342179537,9.1531231761918
11.5327474584337,-5.6008747959137,-5.8427928185463,0.046363742351532,8.09383567887082
11.5427354585845,-4.30062331169844,-3.72692111670971,3.94306607455015,6.92337142926545
11.5527234585024,-0.599293886460364,-2.61285053372383,11.8866246056557,12.1851543112801
11.5627114584204,2.20774827048183,-0.90915783405304,15.2720572185516,15.4575694104782
11.5726994585712,4.72886666178703,0.197865684628487,9.19250128269196,10.339410552174
11.5826874584891,3.54815156131983,1.46216351687908,2.53864527404308,4.60130649702993
11.5926754586399,1.12429443955421,3.28498212575912,1.43735582739115,3.7578101772049
11.6026634585578,1.85687191575766,4.15626695930958,4.52871296167374,6.42119688514608
11.6126514584757,2.5485902184248,4.36509968161583,6.92795301318169,8.57589297302306
11.6226394586265,3.06181612372398,4.32150518059731,9.05836030840874,10.4930461010319
11.6326264585368,2.86830018281937,4.60957819998264,9.84021139383316,11.238554951409
11.6426144584548,1.92285949856043,5.33968435049057,9.73171923100948,11.2656991263427
11.6526024586055,0.862604276463389,6.78220122277737,10.0937536811829,12.1912346766194
11.6625904585235,-0.337160358242691,8.5439877641201,10.6182500946522,13.6330715208711
11.6725784584414,-2.05766150057316,9.51210307359695,10.5839959359169,14.3782838233629
11.6825664585922,-3.58355469793081,9.84707134723663,10.3644446825981,14.7386699525183
11.6925544585101,-4.72227743446827,10.3636213946342,10.0121569561958,15.1640311096657
11.7025424584281,-5.6050321662426,10.9356474852562,9.13578679919243,15.3123274503487
11.7125304585788,-6.52117332994938,11.8386634039879,8.66730027973652,16.0562058697342
11.7225184584968,-6.37833988487721,12.74377145648,9.22922121226788,16.9783819843643
11.7325064584147,-4.39841770112515,12.9582169210911,8.72574027657509,16.2296028115868
11.7424944585655,-2.30459818840027,12.0376698803902,6.73016158819199,13.982551411041
11.7524824584834,-0.784686838835478,9.30551275849343,1.8348591953516,9.51709038521185
11.7624704586342,-0.0347117216326296,3.93699929594994,-11.7050206124783,12.3494403070937
11.7724584585521,0.217782945670188,-4.74821568310261,-28.185754609108,28.583732164809
11.7824464584701,-0.829968627020717,-17.6418635559082,-27.5056041455269,32.6876499164065
11.7924344586208,0.265389988794923,-31.7633968949318,-17.2676604652405,36.1546112148083
11.8024214585312,10.1810444247723,-32.3180918383598,-3.05381450146437,34.0211479621309
11.8124094584491,6.88479296028614,-17.4039614009857,-1.7057082349062,18.7938204507661
11.8223974585999,0.888704200610519,-3.18821479976177,-3.24977954864502,4.63848853403716
11.8323854585178,-3.29768461704254,4.22070502996445,-2.36121706992388,5.85358188075866
11.8423734584358,-7.19878961026669,4.44806816339493,-3.38803579330444,9.11518890510796
11.8523614585865,-7.18381722986698,0.374345762729645,-1.82747299253941,7.42206320915339
11.8623494585045,-5.16151208817959,-2.17305513203144,4.48027784317732,7.17190805820444
11.8723374584224,-5.31181944429874,-3.36126724004746,7.69484984457493,9.9360081218969
11.8823254585732,-7.69443761587143,-5.26465229451656,6.64668439865112,11.4498623355029
11.8923134584911,-12.3383839952946,-9.47664380371571,2.91192275047302,15.8278801961149
11.9023014586419,-9.78795248866081,-10.4446579563618,3.0632796818018,14.6382572786043
11.9122894585598,-0.966266931518912,-4.58725762367249,8.70065338253975,9.88321676236987
11.9222774584778,0.193566153869033,0.144391143321991,6.47933240890503,6.48383105295631
11.9322654586285,-2.37991032600403,0.882728419303894,5.15284417569637,5.7441261929971
11.9422534585465,-2.49905260741711,1.69811270177364,10.2962521147728,10.7304081140247
11.9522414584644,-0.622459568157792,2.6904775840044,14.3112941980362,14.575296469258
11.9622284586076,1.59559420064092,3.45784043848515,15.9193779051304,16.3685422147941
11.9722164585255,3.55445485979319,3.33498283624649,14.7372346222401,15.5223176162362
11.9822044584434,3.35892133712769,1.8696244007349,10.8577099478245,11.5181471278987
11.9921924585942,4.12720191210508,0.422172478437424,6.58175106883049,7.78019744973642
12.0021804585122,4.69407689809799,-1.12263207614422,2.29690559148788,5.34513199087295
12.0121684584301,4.32495913088322,-2.31040798187256,0.323696011304855,4.91406508241855
12.0221564585809,3.4545604428649,-2.70145982444286,0.0239057564735413,4.38548110492775
12.0321444584988,2.92448110789061,-2.59431427538395,-0.435649141073227,3.93355392539467
12.0421324584167,2.99885038197041,-2.2448677110672,-0.699247469902039,3.81070619148217
12.0521204585675,2.53488083660603,-1.97595835626125,-1.36374376773834,3.49139361079731
12.0621084584855,1.48016928657889,-0.639211183190346,-1.48153110310435,2.18961788061586
12.0720964586362,-0.245391926541925,1.80356255829334,-0.962142963409424,2.05882835159414
12.0820844585542,-2.14514754116535,4.21071447730064,-0.645999215841293,4.76960054612381
12.0920724584721,-3.14877708435059,5.68713292121887,-0.72966176211834,6.54145887991666
12.1020604586229,-3.13287821263075,6.00990331828594,-0.553003343939781,6.79997621236497
12.1120484585408,-3.0012565112114,5.47016847610474,0.826261273026467,6.29388524636112
12.1220364584588,-1.95617035523057,4.0856425344944,2.50306964457035,5.17536810516144
12.1320244586095,-0.152545003322884,2.37867597877979,1.34857959866524,2.73861941934232
12.1420114585198,1.61088890880346,0.944757437109947,-0.0337296634912491,1.86779746805691
12.1519994584378,2.5507656750083,-0.0828106069564819,-0.471279734373093,2.59525869875352
12.1619874585886,2.33842988580465,-0.396593248844147,-1.78755653634667,2.96999981590721
12.1719754585065,1.67327943071723,0.0895039147138596,-3.8192276018858,4.17065636069634
12.1819634584244,0.705486522093415,1.24168080210686,-5.08679110407829,5.28345778668726
12.1919514585752,0.171302661001682,1.76224613249302,-4.48654342710972,4.82326942607338
12.2019394584931,0.37827260658145,1.0245064419508,-3.0544734826684,3.24384214640803
12.2119274586439,1.17457961708307,-0.250892913937569,-1.97654614761472,2.31285952984216
12.2219154585619,2.1017351809144,-0.668950706720352,-1.74360593989491,2.81157384614948
12.2319034584798,2.55663891077042,-0.0247179347276688,-2.76674661844969,3.76721387062977
12.2418914586306,2.47416042566299,0.813161755800247,-4.17430737376213,4.92011624899839
12.2518794585485,1.90465828567743,0.679005578756332,-4.20199043154717,4.66320655214798
12.2618674584664,2.07192578315735,-0.75428964972496,-3.98879130095244,4.55766227019381
12.2718554586172,2.79074066787958,-3.30269977390766,-3.69304556518793,5.68635602283931
12.2818440000992,4.19871482133865,-5.02827860176563,-3.02204219341278,7.21425885775318
12.29183200025,6.18543673217297,-5.09393932521343,-1.84479829251766,8.22259850392481
12.3018190001603,8.27492170393467,-4.64616773664951,-1.10572865277529,9.55425767377561
12.3118070000783,10.1272745990753,-5.20321559965611,-1.21476051360369,11.4503618496094
12.321795000229,11.0021630716324,-6.09594275772572,-1.95733263552189,12.7294643016248
12.331783000147,9.21100421190262,-6.6880066716671,-4.09594532847405,12.097470808636
12.3417710002977,5.96555394172669,-6.66133459746838,-6.33845544219017,10.9607130171221
12.3517590002157,3.3469149568677,-6.55488603651524,-7.2444183576107,10.3271471385032
12.3617470001336,2.2756723049283,-6.56452751040459,-6.59702575027943,9.58083788737322
12.3717350002844,1.95971420645714,-6.38753521621227,-5.37022669672966,8.57207213476472
12.3817230002023,2.34371123716235,-5.78224899351597,-4.37091269105673,7.61789101648601
12.3917110001203,4.03393092870712,-4.86916592359543,-3.650955260396,7.30142793174706
12.401699000271,5.03155011892319,-2.1687773090601,-2.50444607913494,6.02431255653492
12.411687000189,4.65498182952404,0.298603270053864,-1.44974593117833,4.88464768545839
12.4216750001069,4.22543484270573,1.35042381048203,-0.345290363430977,4.44940102855954
12.4316630002577,3.56386566102505,0.373221927881241,1.77490827798843,3.9988413887721
12.4416510001756,2.75131493926048,-2.22903462052345,4.40595710098743,5.65250273863106
12.4516390000936,-0.0620815696567297,-4.45563504517078,5.03389602184296,6.72284515185137
12.4616270002443,-4.56275311231613,-6.87462114393711,3.85798587083817,9.1084129691294
12.4716150001623,-8.07323194026947,-11.1318777036667,1.05428572654724,13.7915660301497
12.4816020003054,-8.52542343914509,-14.6412338662148,-1.71682086825371,17.0292703259884
12.4915900002234,-6.96827073454857,-14.5787645530701,-2.81113312482834,16.4012085642896
12.5015780001413,-4.8656163713336,-11.471233727932,-1.89284296318889,12.6034233602275
12.5115660002921,-4.49582003474236,-8.24373908758163,-1.19542114019394,9.46576270732235
12.52155400021,-5.13000027358532,-6.11025674164295,-0.116018114089966,7.97907265655449
12.531542000128,-4.02378454774618,-3.82566714048386,3.81933723717928,6.73898420296139
12.5415300002787,-1.07641963049769,-2.49497651338577,12.4626104307175,12.7554006511397
12.5515180001967,2.5342335498333,-0.821036785840988,15.726033872366,15.9500652802302
12.5615060001146,4.82154473751783,-0.0719844871759415,9.09633680462837,10.2954270764023
12.5714940002654,4.75806268662214,1.41560974001884,2.56730160087347,5.58875200520739
12.5814820001833,2.67868053406477,3.0212528192997,1.01064737141132,4.16229577409445
12.5914700001013,2.12316230267286,4.24720636546612,3.58517700791359,5.94979615217356
12.601458000252,2.62630234569311,5.065145881176,6.00534249007702,8.28355631547898
12.61144600017,3.47500055462122,5.2180014538765,7.91911863148212,10.1002776163214
12.6214340000879,3.35475578069687,5.32232806026936,8.62392154097557,10.6749044526943
12.6314220002387,2.41762779057026,5.99003915727139,8.75312103331089,10.8785394728875
12.6414100001566,1.06316764712334,7.07303237378597,9.41055506408215,11.8201801602444
12.6513970002998,-0.459863191992044,8.17664579629898,10.0913376116753,12.9963112238163
12.6613850002177,-2.14507591277361,8.8314322078228,10.3340929555893,13.7618684315645
12.6713730001356,-3.10204438269138,9.15308227837086,10.4981026768684,14.269259068392
12.6813610002864,-3.83887541592121,9.55401006817818,10.4299241423607,14.6560359735234
12.6913490002044,-4.98259021282196,10.3470831298828,10.0362381291389,15.251701882426
12.7013370001223,-6.44175059974194,11.5132354474068,9.36383171796799,16.1781360390844
12.7113250002731,-7.13870713055134,12.5303094935417,9.03340614616871,17.0168217391311
12.721313000191,-5.82668140053749,13.0518016076088,9.27163574516773,17.0371057031064
12.7313010001089,-3.92290429025888,12.4986760568619,8.30711764276028,15.5117466706868
12.7412890002597,-3.00116587936878,10.4616417789459,5.74258908390999,12.3057009037729
12.7512770001777,-2.1705691882968,6.27997743844986,-1.49238017320633,6.81004301087754
12.7612650000956,-1.81692315369844,-0.706740676760674,-19.0157206678391,19.115394964476
12.7712530002464,-1.96183031380177,-12.8842145597935,-31.480450129509,34.0715497645682
12.7812410001643,-0.145195208564401,-32.5572873973847,-30.7952944493294,44.8145981187535
12.7912290000822,11.401457734108,-42.1915200948715,-10.833419444561,45.0275536004388
12.801217000233,12.1509234309196,-26.3523203802109,0.657843628227711,29.0262379216555
12.8112050001509,4.400661277771,-5.56446301460266,-1.60301475584507,7.27315094233655
12.8211920002941,-1.40478756710887,5.62710014283657,-0.603578251004219,5.83112260472204
12.831180000212,-4.7600638961792,10.3513176834583,-1.57128367066383,11.5011703079852
12.84116800013,-6.8687645727396,8.30732404947281,-3.68352045089006,11.3912195365903
12.8511560002808,-7.15887183845043,2.03888959944248,2.06523422956467,7.72474654736574
12.8611440001987,-5.92516839265823,-2.91733200967312,9.29697406947613,11.404041975744
12.8711320001166,-7.06207995414734,-6.41005693674088,5.51467338860035,11.0169608238373
12.8811200002674,-8.98373112559319,-11.2607959449291,3.30713898003101,14.7800581353229
12.8911080001853,-11.0405804479122,-17.2317632389069,2.16501637995243,20.5794892277244
12.9010960001033,-4.58406796753407,-15.1814195287228,6.01863262653351,16.9621082631621
12.9110840002541,2.07626441717148,-5.16737684547901,10.2635755348206,11.6770561423748
12.921072000172,0.226160763166845,1.09170205950737,7.22552015662193,7.31102616677568
12.9310600000899,-1.96702951177955,3.98847876727581,8.74623593688011,9.81192188313761
12.9410480002407,-2.4680898463726,5.64473417580128,12.1332601618767,13.6077365333479
12.9510360001586,-1.2668820092082,6.66923126220703,13.8072759032249,15.3858540069062
12.9610240003094,0.224888902399689,6.64004605472088,13.962466853857,15.4625763465308
12.9710120002273,1.23421917021275,5.4120845746994,13.146905400753,14.2707770643427
12.9810000001453,0.788775138929486,3.28325836658478,11.1252563166618,11.6264044241101
12.9909880002961,1.15209429547191,1.55236734330654,7.1180822467804,7.37592438316404
13.0009750002064,2.1759294770658,-0.814037668704987,2.23641716882586,3.2247307125175
13.0109630001243,3.10151345551014,-3.78621831536293,-0.555658710747957,4.92580871016428
13.0209510002751,5.01092640459538,-5.23661080241203,-0.492121622934938,7.26454814974542
13.030939000193,6.70741182625294,-5.12167617738247,-0.865368036031723,8.48350175992852
13.040927000111,7.49966978609562,-4.91038177728653,-2.0954175567627,9.20584981608827
13.0509150002617,6.95365971207619,-3.22710404634476,-2.7049301469326,8.1292208124193
13.0609030001797,3.8955939924717,0.529536128640175,-1.9835573977232,4.40347147325598
13.0708910000976,0.381880594454706,3.81126194000244,-0.396813104152679,3.85084549201335
13.0808790002484,-1.49129010602832,5.54691668987274,0.575051988177002,5.77260043081392
13.0908670001663,-2.26685894295573,5.92900533556938,0.0510607375949621,6.34778393893431
13.1008550000843,-3.15840218603611,4.73972669541836,-0.343629169464111,5.70601389081079
13.110843000235,-2.3390735180676,3.34697138249874,-0.74544113136828,4.15080291492216
13.120831000153,-1.06744152322412,1.97173374295235,-2.44132670179009,3.31470080451814
13.1308190003037,0.394958952069283,0.465160623192787,-3.22597027122974,3.2831769934085
13.1408070002217,1.27709884911776,-0.554859250187874,-3.31117940604687,3.59204110736025
13.1507950001396,0.834753549769521,-0.808471704125404,-3.73465288996697,3.91127500871044
13.1607830002904,0.309690870009363,-0.511693934798241,-3.9044724047184,3.95001821224712
13.1707700002007,0.388168215081096,0.356919890642166,-2.93045608520508,2.97752233221696
13.1807580001187,1.20686487212777,1.33103327393532,-1.60235899060965,2.40743156303279
13.1907460002694,2.37307083785534,1.82353079974651,-0.232087098956108,3.00176518079037
13.2007340001874,2.92006382882595,1.89010661244392,0.17731506049633,3.48291779999195
13.2107220001053,2.6630211058259,1.77925919115543,-0.679332438111305,3.27397880885866
13.2207100002561,2.21677417874336,1.16151606023312,-2.27911339133978,3.38490253453583
13.230698000174,1.88543234825134,0.393343366384506,-3.52525912731886,4.01709174135421
13.240686000092,1.52694321110845,-0.302848348617554,-4.08537648618221,4.37190733273946
13.2506740002427,1.16784260138869,-1.55329120337963,-4.16022581666708,4.5917370079065
13.2606620001607,0.87268319517374,-3.49857798993588,-4.41449052751064,5.69994302851209
13.2706500000786,1.25764603972435,-5.14433296859264,-5.03738914847374,7.30897562495214
13.2806380002294,2.31244237437844,-5.79618992507458,-4.74145951777697,7.83738768602618
13.2906259584706,4.56706660330296,-5.16539463937283,-3.75799585193396,7.85251118831546
13.3006139586214,7.23667781352997,-4.80950385868549,-2.48624457389116,9.03782303570671
13.3106019585393,9.11437195658684,-5.27473874151707,-1.67839530587196,10.6635667464995
13.3205899584573,9.36884804427624,-5.85968600928783,-1.83653266847134,11.2019679541831
13.3305769586004,7.25414637029171,-6.26152011752129,-3.59349934995174,10.2343788928222
13.3405649585184,4.92666510343552,-6.16076908349991,-5.4516801649332,9.58894787567144
13.3505529584363,3.83414267957211,-6.30193022489548,-5.97780970573425,9.49469238705174
13.3605409585871,2.87909969776869,-6.322027105093,-5.86152320444584,9.0892626798591
13.370528958505,2.48566540718079,-5.72331315279007,-5.00179480791092,7.99704928469243
13.380516958423,3.76920876502991,-4.88796589136124,-4.52746165752411,7.65487128107587
13.3905049585737,5.29997181594372,-2.70148730635643,-3.2577750313282,6.78239139765232
13.4004929584917,5.74853102445603,-0.161767314076424,-2.1147930367291,6.12732626773169
13.4104809586424,5.75104649662972,0.863250759243965,-1.02903584137559,5.90581513785928
13.4204689585604,5.89902432203293,0.275795620679855,0.890746633037925,5.97226763805765
13.4304569584783,5.11809417307377,-1.78723771691322,3.45336965739727,6.42766432009645
13.4404449586291,2.90742974996567,-4.03639202177525,4.71876910507679,6.85655818698153
13.450432958547,-0.790249368175864,-6.22388743758202,4.35431156873703,7.63683822908609
13.460420958465,-5.06501607298851,-9.67353241860867,3.35328111290932,11.4226140395139
13.4704089586157,-8.25895120382309,-13.7072674655914,1.07353359103203,16.039075120825
13.4803969585337,-8.32822082877159,-14.3925471067429,-1.31188729718328,16.6800996002155
13.4903849584516,-5.57959385454655,-11.014266808033,-1.9599587662518,12.5014950812148
13.5003719585948,-4.09806991428137,-7.5254677015543,-1.64912677556276,8.72619391667141
13.5103599585127,-5.16702075004578,-6.06020106732845,-1.220075340271,8.05684331756489
13.5203479584306,-3.80595208346844,-3.59346777498722,1.42599088668823,5.42510201935846
13.5303359585814,-0.750128113254905,-1.79411930501461,10.7298102915287,10.9046038515444
13.5403239584994,3.28242075294256,-0.815793587565422,15.6996360325813,16.0598373818787
13.5503119584173,4.88411988526583,0.182883363962173,9.89190311908722,11.033486334603
13.5602999585681,4.97414157092571,0.900201653838158,4.32938342660666,6.65552464045928
13.570287958486,3.6404010361433,2.53079772591591,3.1257957726717,5.42476322487043
13.5802759586368,2.67422700226307,3.7301517033577,4.59873278439045,6.4972197909508
13.5902639585547,2.7651278167963,3.85913660287857,6.54829037725926,8.08819967779011
13.6002519584727,2.94990830987692,3.87218291044235,7.76969478964806,9.16863766613595
13.6102399586234,2.92024860084057,3.68344882249832,8.42457475662232,9.64723312398915
13.6202279585414,2.12920920073986,3.93011069118977,8.70103462100029,9.7819888234124
13.6302159584593,0.617056009992957,5.14404528558254,9.62939061820507,10.9346752899923
13.6402039586101,-0.790262962952256,6.87191856086254,10.3060637426376,12.4122008574246
13.650191958528,-1.95244611740112,8.00517502784729,10.2531628131866,13.153791116691
13.660179958446,-2.99825688958168,8.42735920071602,10.1742417740822,13.5471444648419
13.6701669585891,-4.06459782063961,9.02562291741371,10.1208531868458,14.1567826048357
13.680154958507,-5.30036767244339,9.77922785818577,9.69243354320526,14.7536593072651
13.690142958425,-6.19699609279633,10.9160417711735,9.06388475775719,15.4827883608231
13.7001309585758,-6.39349294424057,12.008703943491,8.88911265134811,16.251216759333
13.7101189584937,-4.89885779231787,12.2894626808167,9.07180481135845,16.041425846474
13.7201069584116,-2.63431186169386,11.6590883946419,8.2502189719677,14.523775482434
13.7300949585624,-1.64820671617985,10.1498705792427,6.2441398537159,12.0302011898139
13.7400829584803,-1.2996905900538,7.25599116683006,1.03767174035311,7.44414978917792
13.7500709586311,-0.837149811834097,2.08468967020512,-11.8413917148113,12.0526058830494
13.7600589585491,-1.68353456988931,-6.93206594467163,-27.5964909267426,28.5035811500778
13.770046958467,-4.1709665670991,-22.0428663110733,-29.090269753933,36.7359321600568
13.7800349586178,2.92246147960424,-37.803203458786,-21.4864055085182,43.5808282909197
13.7900229585357,13.2320619106293,-34.3870261859894,-3.08283160150051,36.9737593842695
13.8000109584536,8.14656830370426,-14.4107459807396,-0.323687825202942,16.557202319731
