Time (s),Linear Acceleration x (m/s^2),Linear Acceleration y (m/s^2),Linear Acceleration z (m/s^2),Absolute acceleration (m/s^2)
0.0154733333329204,-0.265945693552494,0.253581463694572,0.0615413600206375,0.372582889625636
0.0254043333261507,-0.250933259725571,0.225841687917709,-0.0238238954544067,0.338436917065268
0.0353353333339328,-0.162290932238102,0.0573670327663422,-0.0679528319835663,0.185059208119222
0.045266333327163,-0.10896841853857,-0.00933332562446594,-0.0313024842739105,0.113758835822664
0.0551983333280077,-0.0799495643377304,0.0232929682731628,-0.0416725212335587,0.0931187104438676
0.0651293333212379,-0.116073954999447,0.0493692111968994,-0.116077170968056,0.171418761118394
0.0750603333290201,-0.160378600358963,0.0775709170103073,-0.347866646647453,0.390832120569259
0.0849913333222503,-0.174728837013245,0.0781269872188568,-0.519715729951859,0.553839717405036
0.094923333323095,-0.0957016709446907,-0.00153606355190277,-0.533638535141945,0.542154272787075
0.104854333330877,0.0252424299716949,-0.0951745444536209,-0.467460333108902,0.477718052006742
0.114785333324107,0.0240080827474594,-0.188355188369751,-0.210804403424263,0.283712110291529
0.124716333331889,0.0679870381951332,-0.282664929628372,0.160630615353584,0.332150409292583
0.134648333332734,0.114465093612671,-0.442218487858772,-0.0640123933553696,0.461255932387801
0.144579333325964,0.138161519765854,-0.479200957417488,-0.109398481249809,0.510578290601562
0.154510333333747,0.00654011070728302,-0.490118293762207,0.0400130814313889,0.491792396864852
0.164441333326977,-0.469398392736912,-0.574507648944855,0.189260337352753,0.765645717740926
0.174373333327821,-1.01980528056622,-1.62603115081787,0.145768162608147,1.92489700268118
0.184304333321052,0.253432359695435,-0.398278416395187,1.04053190588951,1.14261117843347
0.194235333328834,0.424526567459106,0.137293792963028,1.04719188451767,1.13828082434189
0.204166333322064,-0.25644426047802,-0.122598570585251,0.423366479873657,0.509934549253409
0.214098333322909,-0.370737153589726,-0.0749566268920898,-0.300911750793457,0.483334681905236
0.224029333330691,-0.191871703863144,0.0442622530460358,-0.861455079317093,0.883673441645315
0.233960333323921,-0.0280084553360939,-0.198459177017212,-0.886890467405319,0.909255310508049
0.243891333331703,0.236606704294682,-0.451582803726196,-0.60363964676857,0.790120613760511
0.253823333332548,0.384279012680054,-0.700788795948029,-0.426988245248795,0.906142515111883
0.263754333325778,0.360055460035801,-0.84241157501936,-0.410054123997688,1.00371389381422
0.27368533333356,0.401549056470394,-0.789788973033428,-0.424806064367294,0.982582545642192
0.283616333326791,0.294972733855248,-0.73393578439951,-0.771193950176239,1.10472202753842
0.293548333327635,0.112556854784489,-0.495559127926827,-1.32707003116608,1.42104284328436
0.303479333335417,-0.0722885423898697,-0.318210738301277,-1.4702391064167,1.50601684498152
0.313410333328648,-0.387689108848572,-0.291348337233067,-1.76835530340672,1.83364859714585
0.323341333321878,-0.0860774463415146,-0.171299152672291,-2.76281173467636,2.76945507415093
0.33327233332966,0.735184311121702,-0.403663702011108,-3.75657994866371,3.8490691428374
0.343204333330505,1.64129618436098,-1.24663573265076,-4.86179609298706,5.28062638940721
0.353135333323735,1.9941537219286,-1.06880173176527,-4.57898381352425,5.10745327663633
0.363066333331517,1.52094674527645,-0.44115166336298,-2.14922421991825,2.66965513494499
0.372997333324747,0.961627823710442,-0.059468814432621,0.539880437850952,1.10441636097906
0.382929333325592,0.328685732781887,0.78450542896986,3.1049463558197,3.21934386972495
0.392860333333374,-1.06974430292845,1.45248462080956,3.7277911823988,4.1413151953101
0.402791333326604,-1.24366739362478,0.633933778703213,1.64397040843964,2.15666857110025
0.412722333334386,-0.742348758280277,0.263849759101868,1.02739145815372,1.29469362498841
0.422654333335231,-0.436952193081379,-0.381890425086021,1.33889310121536,1.45924715257324
0.432585333328461,-0.00556537985801697,-1.07269831627607,0.513629363179207,1.18933921734481
0.442516333321692,0.310087493956089,-2.15165607690811,0.486697672605515,2.22770122586562
0.452447333329474,1.0474184641242,-2.42900734931231,-0.18030181825161,2.65135265245239
0.462378333322704,1.25590941667557,-1.83318572223187,-0.589345543384552,2.29895770395985
0.472310333323549,0.607709601223469,-0.882309758663178,-0.452218980789185,1.16287724039878
0.482241333331331,-0.403965710699558,0.124024121761322,0.374676130414009,0.564758781163854
0.492172333324561,-1.29400402665138,1.25411549091339,0.254988888502121,1.81996467515127
0.502103333332343,-1.36907087355852,1.58351107567549,-0.619488524794579,2.18303193196192
0.512035333333188,-0.358604473471642,0.78622392565012,-0.742938449978829,1.13960641017656
0.521966333326418,0.569357421398163,-0.245220237672329,-0.990187379121781,1.168234515856
0.5318973333342,1.19058958590031,-0.907993361055851,-1.53004442811012,2.14079225002488
0.54182833332743,1.22232154816389,-1.17259945750237,-1.30165861666203,2.13620565704033
0.551760333328275,0.813230460584164,-1.21360802739859,-1.36234569847584,1.99754199664083
0.561691333321505,0.923647819161415,-1.03205812096596,-1.67285389959812,2.17179866200669
0.571622333329287,1.46207756280899,-0.771021457314491,-1.63844888269901,2.3273718285926
0.581553333322518,1.67565383881331,-0.523805857300758,-0.878235418796539,1.96302975385018
0.591485333323362,1.46125047415495,-0.512552890777588,-0.295408936142921,1.57646118049752
0.601416333331144,1.50119704350829,-0.562270011305809,-0.261571683883667,1.62424132285249
0.611347333324375,1.67032000869513,-0.453055717349053,-0.611067364811897,1.83538326755152
0.621278333332157,2.40923455104232,0.414897957444191,-1.67567225754261,2.96385373318681
0.631210333333002,3.98112413942814,1.28427309036255,-2.62030631840229,4.936062396934
0.641141333326232,5.02169288277626,1.38486800372601,-3.74827807188034,6.41754215419025
0.651072333334014,4.97161615848541,1.33807449102402,-5.08155901551247,7.23392373466699
0.661003333327244,4.78845680594444,1.65206587851048,-5.38300461709499,7.39157486311275
0.670934333335026,4.16734392464161,2.08848685204983,-4.9413047772646,6.79301300007959
0.680866333321319,3.45356378495693,1.724333370924,-3.34400801360607,5.10713402858294
0.690797333329101,2.55823169231415,1.28574249565601,-1.97311485528946,3.47719217025177
0.700728333322331,1.95896137744188,0.966828337311745,-1.03950396537781,2.41926749372081
0.710659333330113,1.55920156896114,1.00329976022244,-0.360363900661469,1.88880440554686
0.720591333330958,1.44415175378323,1.08524556398392,-0.325910351872444,1.83563334562204
0.730521249992307,1.55622972160578,1.31885060012341,-0.601470329761505,2.12673092078864
0.740452250000089,1.79583633989096,1.52030238211155,-0.961891533136368,2.541964361325
0.75038324999332,2.16522483319044,1.26854291081429,-1.18294435143471,2.77430298154925
0.760315249994164,2.44500854730606,0.883538843393326,-1.1486200261116,2.84218853149631
0.770246250001947,2.61754497081041,0.334822093248367,-1.02234648048878,2.82998937003479
0.780177249995177,2.69730157703161,-0.361211162209511,-0.933863489627838,2.87715316214168
0.790108249988407,2.55139717429876,-1.02505783438683,-0.638459815979004,2.82276496390994
0.800040249989252,2.2008253133297,-1.69963707089424,-0.180752638578415,2.78658747375778
0.809971249997034,1.96225862234831,-2.23710728645325,0.0119552171230316,2.97577735042442
0.819902249990264,1.86867846742272,-2.28520472824574,0.772988460659981,3.05149652218702
0.829833249998046,2.00839330002666,-1.96968078553677,1.92593805760145,3.40918222543506
0.839764249991276,2.33595227435231,-1.51905926406384,3.12432256668806,4.18635946575377
0.849696249992121,2.55670381486416,-1.03296560883522,4.05162080258131,4.90095740380253
0.859627249999903,2.47320937603712,-0.512463428378105,4.58401008009911,5.23378751933943
0.869558249993133,2.51492750555277,-0.214608017206192,4.76926858305931,5.39600220316779
0.879489250000916,2.37747320652008,0.0725651156902313,4.56368223488331,5.14634239870663
0.88942125000176,2.06951643794775,0.427262479662895,4.30080165177584,4.79190425210911
0.89935224999499,1.69220642924309,0.741667850017548,4.03072051495314,4.43399838391777
0.909283249988221,1.20859725594521,0.953544048070908,3.76327384114265,4.06597879754904
0.919214249996003,0.694931932389736,1.07937671363354,3.61767875611782,3.83869562000629
0.929146249996848,0.17124448120594,0.944713582992554,3.33440600842238,3.46988066873161
0.939077249990078,-0.281737561225891,0.688359954357147,3.1505955684185,3.23720062954189
0.94900824999786,-0.659955934882164,0.535059408545494,3.34837646842003,3.45448337395452
0.95893924999109,-1.07615343600512,0.3848502856493,3.88738567113876,4.05191106965157
0.968871249991935,-1.40742919296026,0.367403948307037,4.29054066538811,4.53040636099869
0.978802249999717,-1.53701752513647,0.505618093013764,4.46851938486099,4.75244547800793
0.988733249992947,-1.56211699068546,0.793394073843956,4.48910684645176,4.81889654670641
0.998664250000729,-1.57586496412754,1.36241761922836,4.41283722728491,4.87982218414361
1.00859524999396,-1.56286075651646,2.04099810540676,4.14675704777241,4.87891391846416
1.0185272499948,-1.55144991517067,2.58266954541206,3.72898547619581,4.7940078746036
1.02845824998803,-1.52681091785431,2.90187314093113,3.17843883991241,4.56667195712593
1.03838924999582,-1.45683904230595,3.08199369549751,2.74547532498837,4.377065214775
1.04832024998905,-1.49292162537575,3.28358405649662,2.4699457526207,4.37165543661465
1.05825224998989,-1.64413237631321,3.0909767729044,2.40055903717876,4.24499615694248
1.06818324999767,-1.7836527889967,2.54749035716057,2.48490205317736,3.98068619780646
1.0781142499909,-1.9621308606863,2.11733409047127,2.72046999961138,3.96661293598391
1.08804524999869,-2.13681350469589,1.77846923232079,2.7807009986043,3.9320761447105
1.09797724999953,-2.14680698096752,1.46412584245205,2.52089458912611,3.6204080192089
1.10790824999276,-1.93803565442562,1.35686393380165,1.83549069464207,2.99434266956777
1.11783925000054,-1.65492633640766,1.4368316245079,0.949797152280808,2.38859392249969
1.12777024999377,-1.31346180617809,1.40597352862358,0.0637749963998795,1.92510018691097
1.13770125000156,-0.963814097642899,1.32236243784428,-0.43938521951437,1.69429613791815
1.14763324998785,-0.793713331818581,1.46820076704025,-0.605905150473118,1.77558874653282
1.15756424999563,-0.627059499621391,1.56265201091766,-0.58198302179575,1.78151316608914
1.16749524998886,-0.608758299350739,1.422135232687,-0.716860452890396,1.70497630364657
1.17742624999664,-0.397339353561401,0.835158981084824,-1.12656491339207,1.45757249893832
1.18735824999749,-0.232953656315804,0.699517026543617,-0.798937526643276,1.08714886188332
1.19728924999072,-0.226560895442963,0.70337794303894,-1.03840819716454,1.27450459161045
1.2072202499985,0.163507445454597,0.639691824316979,-1.30160745352507,1.45949384304597
1.21715124999173,0.454250303506851,0.870480256676674,-1.5095756649971,1.8008047933775
1.22708324999257,0.757462933659554,1.01534677863121,-1.69543584644794,2.1164077788001
1.23701425000036,0.973188353776932,1.19423298597336,-1.58561636567116,2.21076169131775
1.24694524999359,1.01180044233799,1.45092575311661,-1.3290077984333,2.21250704054674
1.25687625000137,0.855919520258904,1.52727927982807,-1.03695867240429,2.03481289361623
1.26680824998766,0.528252080082893,1.36165631175041,-0.751338559985161,1.64245785430318
1.27673924999544,0.269574767947197,1.22301648974419,-0.670724167227745,1.42067265694928
1.28667024998867,0.193135871887207,1.46572914898396,-0.903403881490231,1.73257091522468
1.29660124999646,0.138328165411949,1.69058616578579,-1.51981501668692,2.2775104720373
1.30653224998969,0.249186696410179,1.58918784499168,-2.07150010585785,2.62273229760611
1.31646424999053,0.128042328357697,1.6248663854599,-2.0633946955204,2.62948346219377
1.32639524999831,-0.156320632696152,1.46934155881405,-1.83156604349613,2.3533029826932
1.33632624999154,-0.519473070502281,1.04694337785244,-1.65289559841156,2.02435337000595
1.34625724999933,-0.923658928871155,0.62493403673172,-1.5432421785593,1.90401806420887
1.35618925000017,-1.16120966613293,0.365733398795128,-1.53682544410229,1.96061246893795
1.3661202499934,-1.19970305621624,0.451931297779083,-1.70735071778297,2.13508215170305
1.37605125000118,-1.14995786905289,0.815029356479645,-1.9580845874548,2.41262744827052
1.38598224999441,-1.1333026599884,1.25446632385254,-1.95089251220226,2.58148063540747
1.39591424999526,-1.15450174033642,1.56899974822998,-1.74958632588387,2.61833664567896
1.40584524998849,-1.27547420024872,2.00025002896786,-1.42393149733543,2.76684215722364
1.41577624999627,-1.49914715588093,2.47828388214111,-1.42451680362225,3.22778272491635
1.4257072499895,-1.64391602933407,2.79685247004032,-1.45559241592884,3.55578302656134
1.43563824999728,-1.88154804289341,2.98164144158363,-1.31759169459343,3.76383535739099
1.44557024999813,-2.0713814073801,3.05864342451096,-1.181822270751,3.87848223056225
1.45550124999136,-2.03175307273865,3.25078643918037,-1.19979017972946,4.01685567292593
1.46543224999914,-1.68579729616642,3.6171794039011,-1.33108823776245,4.20686287635785
1.47536324999237,-1.30461204528809,4.02393979132175,-1.36906707286835,4.44617236315751
1.48529524999321,-1.0680810624361,4.22275330960751,-1.71829845964909,4.68241308153907
1.495226250001,-0.946539083719254,3.74990710616112,-1.8311660939455,4.27912477096209
1.50515724999423,-0.998122927844524,3.27164111852646,-1.40280901551247,3.69699311894478
1.51508825000201,-1.14872907668352,2.88602426290512,-0.723737947940827,3.18943743550251
1.5250202499883,-1.12116325557232,2.56196338534355,-0.535010291934013,2.84726174524961
1.53495124999608,-0.633314266204834,2.42515140295029,-0.738335521817207,2.6129649117023
1.54488224998931,-0.0521709045767784,2.68601206541061,-0.891221207678318,2.83048721244795
1.5548132499971,0.459751363992691,3.01418178141117,-1.21174715101719,3.2810050725475
1.56474424999033,0.815003628730774,2.89789411067963,-1.54717910885811,3.38463947658284
1.57467624999117,0.944649263620377,2.53331963002682,-1.49793385863304,3.09093455511064
1.58460724999895,0.913625983893871,1.98106414496899,-1.05481460720301,2.42321304067484
1.59453824999218,0.873987416625023,1.33815693676472,-0.55118544459343,1.69065767858608
1.60446924999997,0.918957182765007,0.975181669592858,-0.162760756015778,1.349797264838
1.61440125000081,1.10163297057152,0.900921446084976,0.0434027123451233,1.42377612330906
1.62433224999404,1.49765114575624,0.793482366800308,0.222060878276825,1.70935199841024
1.63426325000182,1.85909648895264,0.772128335237503,0.376632608771324,2.0479926863401
1.64419424999505,2.17516802340746,0.629156311154366,0.304257819950581,2.28468081248142
1.65412524998828,2.31199520856142,0.654836112856865,0.157605558335781,2.40810541528621
1.66405724998913,2.40586290031672,0.813172280788422,-0.212770822048187,2.54846951641138
1.67398824999691,2.49368924885988,0.521040709018707,-0.824183464944363,2.67754512085637
1.68391924999014,2.37314831346273,-0.433581565618515,-1.02626937747002,2.62165114515031
1.69385024999792,2.13649512380362,-1.56520256638527,-0.401592910587788,2.67875854710536
1.70378224999877,2.07235379934311,-2.06847709536552,0.264639133214951,2.93994585571442
1.713713249992,2.24063052624464,-2.04854042887688,-0.173973376750946,3.0409225211604
1.72364424999978,2.5953381228447,-1.99481913506985,-1.18465700089932,3.48116296132652
1.73357570833468,2.90898393988609,-2.17615064799786,-1.96410224944353,4.12983254522091
1.74350770832098,3.8761242261529,-3.34445298671722,-3.20250831842423,6.03868895758902
1.75343870832876,4.9734738188982,-4.62749114513397,-3.01094914823771,7.43067499617851
1.76336970832199,5.36121847629547,-5.16023096323013,-1.56266107410193,7.60345689650203
1.77330070832977,5.17005779385567,-5.31894135296345,-0.280273126065731,7.42288271046142
1.783231708323,4.16250944674015,-5.28253015637398,0.788276005983353,6.77148350133193
1.79316370832385,2.84853747099638,-4.7719758439064,1.16216773241758,5.67772428150305
1.80309470833163,1.64408004373312,-3.38641143679619,0.587943381071091,3.81004711635051
1.81302570832486,0.735803238898516,-1.82755543828011,-0.465045725405216,2.02426105358928
1.82295670833264,-0.0685252743959427,-0.993202203512192,-0.965082943439484,1.38655379196421
1.83288870833348,-0.697518448233604,-0.648506501913071,-0.746911633014679,1.2103593087106
1.84281970832672,-1.18791653126478,-0.327018399238586,0.0122823688387871,1.23216783567703
1.8527507083345,-1.45038927108049,0.069448549747467,0.719457786083221,1.62051585758462
1.86268170832773,-1.76954199582338,0.351871989369392,0.874739076197147,2.00505890769115
1.87261370832857,-1.95922991082072,0.575360172986984,0.417765870541334,2.08426233826343
1.8825447083218,-1.94193823233247,1.06244668543339,-0.306412957459688,2.23468251840885
1.89247570832958,-1.9874322013557,1.32334710896015,-0.704480289369822,2.48946315576056
1.90240670832281,-2.0203667896986,1.35484664440155,-0.544410860538483,2.49276444531677
1.9123377083306,-1.77541376978159,1.41981798112392,-0.315177787542343,2.29506300375675
1.92226970833144,-1.38100489452481,1.38026916861534,-0.314549358040094,1.97769026775555
1.93220070832467,-1.09212949097157,1.47809893369675,-0.441472383141518,1.89008495785822
1.94213170833245,-0.766517931818962,1.72783702254295,-0.734221420884132,2.02781942271871
1.95206270832568,-0.253905399441719,1.65357036709785,-0.70565704151988,1.81568575779411
1.96199470832653,0.119843801110983,1.24884539544582,-0.470471795350313,1.33989591708129
1.97192570833431,0.552043377310038,0.650785161852837,-0.113798657208681,0.860943291803934
1.98185670832754,1.31137581199408,0.488366467952728,0.412828043103218,1.45898434552129
1.99178770833532,1.54474432826042,0.530398592948914,0.429224805235863,1.68872485637083
2.00171870832855,1.71486906766892,0.742286485433579,-0.0883888506889343,1.87071583481594
2.0116507083294,1.75338233828545,0.717608896493912,-0.491597054600716,1.95728889452494
2.02158170832263,1.23042710468173,0.666650412082672,-0.892940289080143,1.66003493689982
2.03151270833041,0.488530774712563,0.364428300261498,-1.38783020317554,1.51576481576761
2.04144370832364,-0.00286747455596924,0.389243298768997,-1.53035842359066,1.57908691106658
2.05137570832449,-0.43531628832221,0.566617416143417,-1.33570549160242,1.51481508028291
2.06130670833227,-0.754844696670771,0.640446699857712,-1.07475595146418,1.46118542514572
2.0712377083255,-0.578183354884386,0.732084263563156,-1.17575373798609,1.50087981304648
2.08116870833328,-0.19509995162487,0.785753517150879,-1.53940582036972,1.73932252921279
2.09109970832651,0.0462424126267433,0.882537800073624,-1.92686337947845,2.11986174371336
2.10103170832736,0.343459819480777,0.884585494995117,-2.15242469340563,2.35231549889377
2.11096270833514,0.604187238514423,0.654720337986946,-1.90285822033882,2.10108789603587
2.12089370832837,0.65766411870718,0.562802107930184,-1.24151941895485,1.51348563698753
2.1308247083216,0.636473663002253,0.495069715976715,-1.07936180323362,1.34729902013343
2.14075670832244,0.518455216437578,0.49022120475769,-1.4922898337245,1.65409842176423
2.15068770833022,0.376988338753581,0.603932592272759,-2.22673110991716,2.33777377422162
2.16061870832345,0.0701101621985436,0.540379205346108,-2.69180782556534,2.74640756083084
2.17054970833124,-0.197598247602582,0.0799308532476425,-2.8599190762639,2.86785130917464
2.18048070832447,-0.251235853135586,-0.38474328160286,-2.7072082221508,2.74592847771391
2.19041270832531,-0.169740650430322,-0.604497433304787,-2.40627688318491,2.4868448833473
2.20034370833309,-0.191174642667174,-0.815993562340736,-2.07868954986334,2.24128166067799
2.21027470832632,-0.300270895957947,-0.994522504806519,-1.84358908832073,2.11614232746791
2.22020570833411,-0.140144383683801,-0.960084743499756,-1.9276869598031,2.1580964246238
2.23013770833495,0.15109183318913,-0.487715088129044,-2.31657416313887,2.37217423528874
2.24006870832818,0.420090065672994,-0.523688912987709,-2.41959800988436,2.51101180210284
2.24999970832141,0.578347807824612,-0.749621232748032,-2.01594629466534,2.22720848650887
2.25993070832919,0.726719443202019,-1.06393421709538,-1.54684055507183,2.01315495435625
2.26986170832242,0.739199082478881,-1.5262373059988,-1.43182319194078,2.21944435630624
2.27979370832327,0.49719781011343,-1.93662004351616,-1.03464317500591,2.25126394607928
2.28972470833105,0.168000957593322,-1.96842538833618,-0.242624658644199,1.99042446633399
2.29965570832428,-0.257332671806216,-1.79083960175514,0.0315243861079216,1.80950832275315
2.30958670833206,-0.817993163913488,-1.88079667568207,-0.0663825622200966,2.05205155783982
2.31951870833291,-0.961740090250969,-1.2690305685997,-0.0268843281269074,1.59251541667114
2.32944970832614,-0.822493765801191,-0.338147404789925,-0.0570686785876751,0.891120921213126
2.33938070833392,-0.60292190104723,-0.0667705249786377,0.0336492642760277,0.607540447011264
2.34931170832715,-0.395454065054655,0.380315769910812,0.124037570357323,0.562502730012267
2.35924270833493,-0.254082570075989,0.828679681420326,0.533551411628723,1.01781387083608
2.36917470832123,-0.630098882317543,0.984478742480278,0.56873293876648,1.29987697553704
2.37910570832901,-1.56099330201745,1.0527923476696,0.766696856617928,2.03295250465987
2.38903670832224,-2.5349653288722,1.24825599610806,0.987183518260718,2.9931126856718
2.39896770833002,-2.99312391132116,1.25099190831184,2.21341553807259,3.92721018629833
2.40889970833086,-2.75068519413471,1.47362405955791,3.40122126460075,4.61585777477082
2.41883070832409,-2.08707796543837,1.65236174762249,3.09553409278393,4.0827105087689
2.42876170833188,-1.34278208434582,1.49696497499943,2.27602211460471,3.03714414023846
2.43869270832511,-0.629675251543522,1.98161436796188,1.13477908194065,2.36875705603792
2.44862370833289,0.321759340390563,2.79908844530582,-0.411862229257822,2.84746478356842
2.45855570833373,0.892677164375782,2.62246803402901,-1.29437196269631,3.0577131793411
2.46848670832696,0.470008549690247,2.14362083315849,-2.07623751997948,3.02105619817036
2.47841770833475,-0.379404042810202,1.65973508656025,-2.21159281477332,2.79102324669947
2.48834870832798,-0.489634582847357,2.6988379329443,-0.771732551828027,2.84939280278626
2.49828070832882,-0.465026721954346,3.84092544972897,0.71859722211957,3.93514169124127
2.50821170832205,-0.163526010364294,3.79995517909527,0.463873577937484,3.83165484034081
2.51814270832983,0.605677547603846,4.68524117052555,0.164520694836974,4.72709183078652
2.52807370832306,0.867732503861189,5.11804914951324,1.20300614833832,5.32865936123058
2.53800470833085,0.68714548766613,4.24779518008232,1.62651880860329,4.60016263276537
2.54793670833169,0.235637235939503,1.59408430337906,0.635447330474854,1.73217290795357
2.55786770832492,-0.196006270051003,-0.647770337462425,0.681645158082247,0.960554521894755
2.5677987083327,-0.250756089091301,-1.66892281651497,1.43808000504971,2.21726319696701
2.57772970832593,-0.044732369184494,-2.03821483075619,1.72479880928993,2.67044034078564
2.58766070833372,0.0889203625917435,-2.64008686423302,1.07388208508492,2.85152384072894
2.59759270833456,0.125931191146374,-3.07827077329159,0.301052814871073,3.09551973276646
2.60752370832779,0.2972364833951,-3.41451257050037,-0.432946411818266,3.45466180930529
2.61745470832102,0.625997060537338,-3.45567638397217,-0.852860257029533,3.61399255790114
2.6273857083288,0.722839815616608,-2.82483198165894,-1.03376302286983,3.09367727972663
2.63731770832965,-0.264757831692696,-2.34053576052189,-1.04587816134095,2.57722049582381
2.64724870832288,-0.757504741251469,-3.25759201347828,-0.658714644089341,3.40875697896369
2.65717970833066,-0.396611959934235,-4.39593380391598,-0.934427161216736,4.51161713521811
2.66711070832389,0.295715622603893,-5.1390406537056,-1.09697632111609,5.26313059110072
2.67704270832473,0.50010212212801,-4.88491832256317,-0.946084243431687,5.00076039681367
2.68697370833252,1.50040635377169,-3.32553373575211,-0.568747118264437,3.69240668651192
2.69690470832575,1.72182754665613,-3.47604866802692,-0.879684505015612,3.9776185427062
2.70683570833353,0.926007463037968,-3.85704037606716,-1.09176418617368,4.11414624465706
2.71676670832676,0.910494507551193,-3.18067130684853,-0.885691934376955,3.42492633688825
2.7266987083276,0.653003595471382,-1.66146235406399,-0.798620022833347,1.95567502171008
2.73663358332124,0.373984404802322,0.0249962621927261,-1.52166712224484,1.56715027329221
2.74656458332902,0.231180780529976,1.13988545536995,-2.25029685080051,2.53310468030303
2.75649558332225,0.0191361826658249,1.44447978258133,-2.55190851330757,2.93242648604614
2.76642658333003,-0.0541662669181824,1.12615853190422,-2.51396768510342,2.75521333932542
2.77635858333088,0.497058354020119,0.787116503119469,-2.42081569254398,2.59363991603527
2.78628958332411,1.27168929755688,0.796863226890564,-1.9445775192976,2.45633189948931
2.79622058333189,1.87970616996288,1.21675529122353,-1.19648489490151,2.53877230720765
2.80615158332512,2.14309867680073,1.1401672911644,-0.73799813747406,2.53722183524842
2.81608358332596,2.25532662570477,0.997815656661987,-0.893199028372765,2.62296373928018
2.82601458333374,2.43025572985411,0.566946614384651,-1.32235717535019,2.82421668348076
2.83594558332698,2.40996647626162,0.425552169084549,-1.06524223923683,2.66903991981606
2.84587658333476,1.63976012080908,0.927994639277458,-0.932608677148819,2.10231925477953
2.85580758332799,1.20435890167952,1.27766573667526,-0.226975481305271,1.77043157671862
2.86573958332883,1.49177147805691,1.92859766364098,0.0738105634879321,2.43932758977304
2.87567058332206,1.93776229709387,2.801653034091,0.522329435348511,3.44630388713783
2.88560158332984,1.96104766398668,2.93910236299038,1.73028817534447,3.93419976746227
2.89553258332307,0.862115814685822,1.5217098069191,1.79747151374817,2.50793705206915
2.90546458332392,-0.759320886433125,0.121842525601387,1.9916283094883,2.13494663464306
2.9153955833317,-1.01729273200035,-0.259370791912079,1.59877260088921,1.91265039660464
2.92532658332493,0.376876145303249,0.13497478723526,0.73787885427475,0.839475446736626
2.93525758333271,2.13367588877678,0.980164082050324,0.0780006873607636,2.34933576427842
2.94518958333356,2.94535157471895,2.13537158131599,0.172927894592285,3.64208892611363
2.95512058332679,2.53547871440649,3.25288383543491,0.75093225158751,4.19211221277728
2.96505158333457,2.44659255802631,3.4752212870121,-1.33045439958572,4.45343542089349
2.9749825833278,2.68090539962053,2.8056993073225,-1.68442246958613,4.2304233146189
2.98491358332103,2.07115745902061,1.13139295935631,-1.6354054069519,2.87128788066005
2.99484558332188,2.03832329660654,-0.227825648188591,-1.65879763171077,2.63785442555702
3.00477658332966,2.17720226973295,-0.542895262241364,-1.4539054942131,2.67372140942124
3.01470758332289,1.49580634921789,-0.166874272227287,-0.941944341659546,1.77554014313289
3.02463858333067,0.408385621011257,0.0142163354158401,-0.192107931375504,0.451537791263125
3.03457058333152,-0.773852971494198,-0.00675002574920654,-0.354928328990936,0.851391862222275
3.04450158332475,-1.65028744786978,-0.474793910980225,0.217302414178848,1.73092410512662
3.05443258333253,-2.22220594972372,-1.81313035726547,1.9371778678894,3.46096793791356
3.06436358332576,-2.99957982212305,-2.41748453378677,2.65734316706657,4.68008368386094
3.07429458333354,-3.84485594809055,-2.09808330237865,1.95938208460808,4.7983381455219
3.08422658333438,-4.49418836921454,-2.24170319795609,2.33920318007469,5.54029185543337
3.09415758332761,-4.05917160451412,-1.87142358899117,2.20737711846828,4.98513932678553
3.1040885833354,-3.65890864312649,-0.666436403989792,2.23523851633072,4.33912907899695
3.11401958332863,-3.11854668706656,0.677181247472763,1.89009608745575,3.7089582231616
3.12395158332947,-2.50593448787928,1.34993498325348,1.01785289525986,3.02292187013545
3.1338825833227,-2.00672962099314,1.24814606845379,0.22863545101136,2.37425915801689
3.14381358333048,-1.14353704154491,0.373741745352745,0.272085562348366,1.23344655775718
3.15374458332371,0.288649554848671,-1.43810748696327,2.85353128552437,3.20844393858464
3.16367658332456,1.29846545219421,-1.55202411174774,3.9046103990078,4.39781465526097
3.17360758333234,0.678087858259678,-0.0786386185884476,0.100703068580478,0.690020495256642
3.18353858332557,0.347346244454384,0.134146821498871,-1.14906149089336,1.20788538078284
3.19346958333335,0.331488010883331,-0.264896995425224,-1.34420822024345,1.40959230237497
3.2034015833342,-0.0703621771931648,-0.414578114748001,-1.19522525846958,1.26703956832099
3.21333258332743,-0.514808746576309,-0.0769031649827957,-0.78714223086834,0.94368163802854
3.22326358333521,-0.45179388821125,0.281009582877159,-0.993419719934464,1.12692805584407
3.23319458332844,-0.449363493025303,0.136169958114624,-0.983282402157784,1.08963943061456
3.24312658332929,-0.763651626706123,-0.427885792851448,-0.573439362645149,1.04646202096679
3.25305758332252,-1.14756723493338,-1.83836752474308,-0.576376419067383,2.24247976382833
3.2629885833303,-1.66258998960257,-1.34627462625504,0.0361919282865711,2.13961928821412
3.27291958332353,-0.652399870455265,-0.764683660268784,-0.927942599058151,1.36800736781602
3.28285158332437,0.300582844913006,-0.745436380505562,-1.63057326793671,1.81790941087476
3.29278258333216,0.354222862422466,-0.470583915710449,-1.32711213111877,1.45194685390022
3.30271358332539,-0.29704147875309,-0.282869582176209,-0.795038895606995,0.894614825580459
3.31264458333317,-0.837683224081993,0.107812716364861,-0.379002485275269,0.92573195340941
3.32257658333401,-0.362387037277222,0.716840572357178,-1.14785988807678,1.40098789916957
3.33250758332724,0.421680435240269,0.546530476212502,-1.71811076402664,1.85159783656109
3.34243858333502,1.37284875959158,-0.227461951375008,-2.32419922471046,2.70893977271186
3.35237058332132,2.29492192357779,-0.807480601072312,-2.71632637023926,3.6465216996589
3.3623015833291,2.33950460404158,-0.0557806831598282,-1.55924659252167,2.81205320241918
3.37223258332233,2.10455266177654,0.849143766760826,-0.989661129713059,2.47580617062088
3.38216358333011,1.82694966673851,1.35023260653019,-1.15258326888084,2.54741464395518
3.39209558333096,0.45542150080204,1.942134552598,-0.933689242601395,2.20251469133293
3.40202658332419,-0.203341894447804,1.14127416908741,-0.986760910749436,1.52235073161438
3.41195758333197,-0.430845653414726,0.529695172905922,-0.992104681134224,1.20435736041867
3.4218885833252,-0.24888147175312,0.5732265239954,-0.68165670633316,0.924762942641421
3.43182058332604,0.198460638821125,0.585990411043167,-0.486159655675292,0.786843439193686
3.44175158333383,0.781037445366383,0.849415077567101,0.0281888419389725,1.1542617016399
3.45168258332706,1.46181122213602,1.23366777777672,-0.412490731850266,1.95677715618047
3.4616145833279,1.69687864691019,0.826340210437775,-1.19639353215694,2.2346348179318
3.47154558332113,1.65255470573902,0.265300453305244,-2.1499434274435,2.72462440112241
3.48147658332891,2.05950922071934,-0.397694864273071,-2.40127853706479,3.18839741059128
3.49140758332214,1.93950564444065,-1.04802101969719,-1.31243810489774,2.5656429957677
3.50133958332299,1.84089615315199,-1.28282064199448,-0.309785485267639,2.26505948996918
3.51127058333077,2.00964036494494,-1.22179325222969,-0.271879155635834,2.36756233769657
3.521201583324,2.37518343687058,-0.874646982550621,-0.17154093503952,2.5369134780799
3.53113258333178,2.75921832829714,-0.610998952388763,-0.0165698397159576,2.82610687388486
3.54106458333263,2.40499765858054,-1.11339113652706,1.37350671753287,2.98499150145906
3.55099558332586,1.28250971630216,-0.111878870129585,1.53436581283808,2.00290451634549
3.56092658333364,-0.296083704829216,1.08116186857224,0.0396604943275452,1.12167263545578
3.57085858333448,-1.38658211499453,1.04746027171612,0.0888026873767376,1.74001979866082
3.58078958332771,-1.95704612195492,1.01754065394402,0.622108662128449,2.2918197340504
3.59072058332094,-2.50455162137747,-0.111140366792679,0.377893268465996,2.53533712307204
3.60065258332179,-2.94447361528873,-1.94632700622082,1.03346539959312,3.67779341704128
3.61058358332957,-2.8419669547677,-3.58271182179451,1.82260927855968,4.92285534545853
3.6205145833228,-2.47093568623066,-4.18390557825565,3.06664826273918,5.7458611731061
3.63044558333058,-1.89821728527546,-4.0083575463295,2.95388997137547,5.32875454907877
3.64037758333143,-1.51881572753191,-3.66259531259537,2.32782040536404,4.59784226324404
3.65030858332466,-1.1918414747715,-2.64425709843636,2.57986639022827,3.88178983138526
3.66023958333244,-0.814180340766907,-1.89338982403278,1.93670775175095,2.82818874347778
3.67017158333329,-0.465049233734608,-1.69375184834003,0.95409368634224,1.99883988249948
3.68010258332652,0.335752385258675,-1.99087518811226,0.614872074946761,2.11054053441227
3.6900335833343,1.53111709982157,-2.82388824105263,-0.379618854895234,3.2346212832901
3.69996558333514,2.83056459188461,-2.46308521449566,0.572421362400055,3.79559625076614
3.70989658332837,3.53379840105772,0.214444879889488,1.54613011837006,3.86318988515449
3.7198275833216,2.78538140237331,2.44491966962814,0.667670166492462,3.76586845214298
3.72975858332939,1.06714492321014,4.44707413673401,-1.23682878255844,4.73761671118577
3.73968645832792,-0.302568851709366,4.89858385026455,-2.56575588941574,5.53812016230859
3.74961745832115,-0.910517896413803,4.23619488894939,-1.91382964342833,4.73678518416402
3.75954845832894,-0.35474706530571,2.56721418499947,-1.65145718336105,3.07306768237869
3.76948045832978,0.209113096296787,1.03232592344284,-1.37784725189209,1.7343264251004
3.77941145832301,0.607619700282812,-0.878024334311485,-1.23959334611893,1.6360684874287
3.78934245833079,1.36985878586769,-2.20918975532055,-1.44339322373271,2.97328378506823
3.79927445833164,2.21448440909386,-2.01216080725193,-2.1753489947319,3.69930744346041
3.80920545832487,2.52150357663631,-1.70244490385056,-2.23113727927208,3.77283348381479
3.81913645833265,2.70447055578232,-1.32211860895157,-2.14446634054184,3.69606473008069
3.8290684583335,2.85934195607901,-0.554176880121231,-2.08376639485359,3.58120521955609
3.83899945832673,2.5201695343852,0.168810285329819,-1.15802468776703,2.77862782177722
3.84893045833451,1.15981525138021,1.50354718565941,-0.34663814663887,1.93028069501399
3.85886145832774,-0.0932075411081314,2.24779073417187,0.291517614126205,2.26853109956513
3.86879345832858,-1.06640788167715,2.28403411567211,1.30966579377651,2.84064466328429
3.87872445832181,-1.17836832046509,1.81036345481873,1.35388770103455,2.54930964071286
3.88865545832959,-0.143963711857796,1.17002785205841,0.936222256422043,1.50539125756206
3.89858745833044,1.25209644734859,0.402277327179909,0.6303637611866,1.45840016211028
3.90851845832367,2.00586642578244,-0.368313775062561,0.474317399449647,2.09383192983648
3.91844945833145,1.87773419648409,-1.38525041162968,0.298306816220284,2.35240119286006
3.9283814583323,1.71604114204645,-1.44631229996681,0.515965910553932,2.30278902444083
3.93831245832553,1.29137862682343,-1.55041320383549,0.349347746372223,2.04779972368861
3.94824345833331,1.1623206371069,-1.67555063545704,0.411949206590653,2.08042335697226
3.95817545833415,1.53054582685232,-1.2428999465704,0.432769972085953,2.01857886990304
3.96810645832738,1.46159706786275,-1.30388640582562,0.239553372077644,1.97326419066368
3.97803745833517,0.998921072781086,-1.57717941820621,0.123322455883026,1.87097478737273
3.98796945832146,1.04357289656997,-1.16547930300236,-0.354010243043304,1.6039668476505
3.99790045832924,0.760792338252068,-1.11936114370823,-0.24212209045887,1.3749172552103
4.00783145832247,0.956373369544745,0.829017065763474,-1.12346289239824,1.69236171898837
4.01776245833025,1.3195136743784,1.86291822910309,-1.23393090248108,2.59502719394112
4.0276944583311,0.880136640965939,-0.327518920898438,-0.707324813604355,1.1756774822449
4.03762545832433,1.22828132271767,-1.28742473959923,-0.431958963274956,1.8310450605659
4.04755645833211,1.85995763763785,-1.33938017427921,0.0405667396634817,2.29238463732126
4.05748845833296,1.78248597711325,-0.840137885212898,0.540652197226882,2.04337777298806
4.06741945832619,1.23688535436988,-1.07498253107071,0.197445196732879,1.65059305332198
4.07735045833397,0.740079015344381,-0.423295143842697,0.855049381479621,1.20747884972061
4.08728245833481,-0.141663417220116,0.380443239212036,0.984268827438355,1.06470216807683
4.09721345832804,-0.815187816023827,0.316482301354408,0.815245703458786,1.19554078954768
4.10714445832127,-1.08914507210255,0.924716690182686,0.476332898139954,1.50606473135722
4.11707645832212,-0.903448393419385,1.86577985644341,-0.0967043222486973,2.07526027240528
4.1270074583299,-0.163444514796138,1.86073721766472,-0.730065658539534,2.00550566401552
4.13693845832313,0.333252919837832,1.62185857772827,-0.469584188014269,1.72104388798317
4.14687045832397,0.382321364879608,2.00807477295399,-0.16181701540947,2.05054106671718
4.15680145833176,0.193789225146174,2.61347267746925,0.337611068934202,2.64230485249677
4.16673245832499,0.23755161434412,2.66585905194283,0.734175227880478,2.77529251062592
4.17666445832583,0.375325902253389,2.48567417800427,1.02896041229367,2.71628518056685
4.18659545833361,0.532907925546169,2.47689282953739,1.03441337943077,2.73660373194021
4.19652645832684,0.418473822176456,2.47007205247879,1.01166887998581,2.70182349664361
4.20645745833463,0.302280437797308,2.60665891706944,0.49148274153471,2.66975644174502
4.21638945833547,0.550164082199335,2.632805326581,-0.39156727463007,2.71802673562582
4.2263204583287,0.814754537343979,2.47984684288502,-1.05543587386608,2.81556569877757
4.23625145832193,0.838532678335905,2.0534865885973,-1.426506318748,2.63720770884929
4.24618345832278,0.838307999074459,1.33062162995338,-1.47004497885704,2.15275322860629
4.25611445833056,0.980533918440342,0.720554723739624,-1.41777437925339,1.8683495565827
4.26604545832379,1.09266509592533,0.470520181059837,-1.41331003010273,1.84736338976041
4.27597745832463,1.01291799142957,0.52420171380043,-1.41852077633142,1.82016248917423
4.28590845833242,0.919325995892286,0.370939759612084,-1.17327744215727,1.53601319924652
4.29583945832565,-0.0981879801303148,0.102910410761833,-0.721371872127056,0.735261048867227
4.30577145832649,-1.64314843609929,0.0743660581111908,-1.08936989754438,1.97286438138317
4.31570245833427,-2.73624344855547,-0.517487940788269,-1.19296297073364,3.0295185472556
4.3256334583275,-3.36571784824133,-1.26912412405014,-0.874071031808853,3.70172025480906
4.33556545832835,-4.10548886150122,-1.54854560315609,-0.776055909991264,4.45592807980526
4.34549645832158,-4.66644178748131,-1.80673584222794,-0.522927897870541,5.03124506915675
4.35542745832936,-4.34184881329537,-1.80265214681625,-0.259420785605908,4.70834419132034
4.36535845832259,-3.04484896570444,-1.7719443243742,-0.66676384806633,3.58545198569463
4.37529045832343,-1.98148748338223,-1.14671675741673,-0.803091681003571,2.42615090557819
4.38522145833122,-1.27245879113674,-0.409844208955765,-1.11070317149162,1.7380406168779
4.39515245832445,-0.509996926635504,-0.0577757531404495,-1.34795891672373,1.44236893477488
4.40508445832529,-0.145409289747477,0.523674294948578,-1.51316146999598,1.60780479630306
4.41501545833307,-0.0245191293954849,1.00683907985687,-1.73210315108299,2.00362357902501
4.4249464583263,0.154754017442465,0.939110196232796,-1.55203668326139,1.82063028448173
4.43487845832715,0.238030062764883,0.618347733020783,-1.55117655783892,1.6867604878289
4.44480945833493,-0.146148304715753,0.502440716028214,-1.52764794677496,1.6147799383755
4.45474045832816,-0.726237340271473,0.0213943773508072,-1.58979420125484,1.74794851072059
4.46467245832901,-1.09654333479702,-0.625764926075935,-1.54284602969885,1.99358042204274
4.47460345832224,-1.23353796958923,-1.02148693978786,-1.30122182965279,2.0635478527382
4.48453445833002,-1.26169012024999,-1.16168738365173,-1.23951353162527,2.11607498259258
4.49446545832325,-1.2341492959857,-1.15760134935379,-1.27812532782555,2.12055882314942
4.50439745832409,-0.990442098453641,-1.00253202080727,-1.41878156214952,1.99974676502516
4.51432845833188,-0.516103685572743,-0.655058891773224,-1.27896761924028,1.52683441702697
4.52425945832511,-0.589187960922718,-0.256373509168625,-1.68392443299294,1.80235160985039
4.53419145832595,-1.2410744458437,0.61831849694252,-0.73675326526165,1.57015569854114
4.54412245833373,-2.22898784279823,0.206593238711357,-0.71252328068018,2.34920348099836
4.55405345832696,-2.80656469523907,-0.825123404860497,-2.39678539037705,3.78182683756618
4.56398545832781,-2.40391957819462,0.46067288517952,-2.09620810031891,3.22259790315354
4.57391645832104,0.0229365073889494,1.01303362011909,1.16552637308836,1.54441410419204
4.58384745832882,0.0271803434193134,0.0434535831212997,-0.76149809718132,0.76322102759636
4.59377945832966,-1.20334660246968,-0.295880806446075,-2.3490943300724,2.65590524470976
4.60371045832289,-2.79057109862566,0.3524590498209,-3.55263462156057,4.53130524160493
4.61364145833068,-5.65210225224495,2.47190983235836,-4.93135340094566,7.8977746520245
4.62357245832391,-0.908498341217637,-1.4882467764616,5.41042981266975,5.68445234490265
4.63350445832475,2.02280595570803,-1.67224754333496,1.7885875466466,3.17603545204662
4.64343545833253,2.5621291539073,-0.469327349066734,0.469106616675854,2.64666487861475
4.65336645832576,3.09629540026188,-1.04541842401028,-0.843627795875073,3.37515225507177
4.66329845832661,2.88597865462303,-0.877184674143791,-1.99458173811436,3.61616952831471
4.67322945833439,2.3041282184422,0.0169902545213699,-1.90408818215132,2.98912149655691
4.68316045832762,1.79739447668195,0.368216126561165,-1.33268774360418,2.2676566412531
4.69309245832847,1.0115041346848,0.524259016513824,-1.13867859005928,1.61076909032297
4.7030234583217,0.10774576574564,0.835193479657173,-1.39782748013735,1.63189428662677
4.71295445832948,-0.524475217312574,0.959630414843559,-1.38191808342934,1.76228895927339
4.72288645833032,-0.924825009852648,1.2175499278307,-0.968674888014793,1.80998899562399
4.73281787498854,-1.18182168602943,1.75225148677826,-0.720883629620075,2.23310567997582
4.74274887499632,-1.2807121360302,2.16728451490402,-0.45353021889925,2.55793576998575
4.75267987498955,-1.18763264894485,2.42238508522511,-0.207114225625992,2.70579325012416
4.7626118749904,-0.902952914983034,2.4949507856369,-0.183291499614716,2.65964267586034
4.77254287499818,-0.635267382413149,2.29450823307037,-0.0703987222909927,2.3818666333122
4.78247387499141,-0.468265494704247,1.80653002023697,0.19083031475544,1.87596361813806
4.79240587499226,-0.287968792766333,1.21837555468082,0.700694655776024,1.43469091391985
4.80233687500004,-0.288778924494982,0.537947348356247,1.59652756243944,1.7092925069937
4.81226787499327,-0.3183971183002,-0.181763622164726,2.40348571479321,2.43128737924979
4.82219987499411,-0.0166012685000896,-0.565076674818993,2.57476206332445,2.63609311923443
4.83213087500189,0.678114609271288,-0.605866851210594,2.16171855032444,2.34519533419282
4.84206187499512,1.20703487992287,-0.696759479641914,1.65886034309864,2.16661593544556
4.85199387499597,1.00229433149099,-1.00371666669846,1.05541306972504,1.76803218909998
4.8619248749892,0.311885805130005,-1.41812111914158,0.330835753977299,1.48922549001375
4.87185587499698,-0.432390341609716,-1.67723931133747,-0.104642356038094,1.73523575853265
4.88178687499021,-1.0001962043345,-1.72745227575302,-0.07519402384758,1.99753296678473
4.89171887499106,-1.32035333454609,-1.57784775495529,0.0499840459227562,2.05801721827375
4.90164987499884,-1.44111719503999,-0.984227896928787,0.249744813144207,1.76292251520741
4.91158087499207,-1.48807749956846,-0.154220897555351,0.48656230956316,1.57318200188412
4.92151287499291,-1.56917209491134,0.768411844968796,0.590748582780361,1.84438111977806
4.9314438750007,-1.56943507343531,1.63480957567692,0.426373410522938,2.30597551670758
4.94137487499393,-1.28696544080973,2.24963494598866,0.0755287769436836,2.59284439027848
4.95130687499477,-0.648584123700857,2.57051552295685,-0.306096769273281,2.66869006282829
4.961237874988,0.178780957460403,2.52069256782532,-0.556907529830933,2.5876629705243
4.97116887499578,1.04137054279447,2.1278222411871,-0.672633867859841,2.46262388879882
4.98109987498901,1.79379800051451,1.52604902565479,-0.711982120871544,2.4603770921939
4.99103187498986,2.27441778481007,0.884949776530266,-0.830212821364403,2.57786068196075
5.00096287499764,2.36409302294254,0.26990162730217,-1.03548780530691,2.59499859431278
5.01089387499087,2.06784939676523,-0.247204490303993,-1.228817512393,2.41807850709866
5.02082587499172,1.57700312465429,-0.646443019509316,-1.32989920645952,2.16181852429463
5.0307568749995,0.987750844359398,-0.899919818043709,-1.36848819851875,1.9126597603666
5.04068787499273,0.330445890873671,-0.895775311589241,-1.33363586962223,1.64018063895144
5.05061987499357,-0.363284146338701,-0.736390153169632,-1.29696476429701,1.53504509005248
5.06055087500135,-0.997806447297335,-0.540680921673775,-1.17789001822472,1.63565841799673
5.07048187499458,-1.4746085844934,-0.323465631008148,-1.23073861509562,1.9477725818464
5.08041287498782,-1.73664190605283,-0.181843729019165,-1.24651411056519,2.14541130776374
5.09034487498866,-1.8604144513607,-0.132004986405373,-1.04645864367485,2.13860771068222
5.10027587499644,-1.83931872054935,-0.142434080243111,-0.870335245728493,2.03981966431723
5.11020687498967,-1.61915628701448,-0.202470366954803,-0.87566322863102,1.85187672949628
5.12013887499052,-1.31948473066092,-0.229199159145355,-0.974220679700375,1.65610330044841
5.1300698749983,-1.12701909586787,-0.170468555688858,-0.987032806277275,1.50780148945313
5.14000087499153,-1.10261661842465,-0.0438488548994064,-0.768109836280346,1.3444994793204
5.14993287499237,-1.22296254917979,0.0768680816888809,-0.570845245420933,1.35181744066962
5.15986387500016,-1.45353741198778,0.189590705037117,-0.713164427876473,1.63012856691519
5.16979487499339,-1.7200143250823,0.257442380189896,-1.05816652357578,2.03579032545658
5.17972587500117,-1.84816731199622,0.252102702856064,-1.10574941039085,2.16840031924421
5.18965787500201,-1.7573218998313,0.192913092970848,-0.795185953080654,1.93848302057125
5.19958887499524,-1.58465610668063,0.157675432562828,-0.471645477712154,1.66085700020213
5.20951987498847,-1.51286852449179,0.212971381545067,-0.586527770161629,1.6365032254554
5.21945187498932,-1.55782031044364,0.367584627270699,-0.875830166637898,1.82455503030997
5.2293828749971,-1.575487087816,0.520765889883041,-0.983419519364834,1.92885215270854
5.23931387499033,-1.46613669991493,0.676228151321411,-0.876638544201851,1.83720888106316
5.24924587499118,-1.23378764569759,0.830103478431702,-0.568870640695095,1.59214243879914
5.25917687499896,-0.945229599773884,1.01881827056408,-0.223870591521263,1.40768167796273
5.26910787499219,-0.727559688091278,1.21384103894234,-0.287598225474358,1.44411422915644
5.27903887499997,-0.733129307180643,1.23973952651024,-0.708588689267635,1.6051575016792
5.28897087500081,-0.913754622638226,1.06081414282322,-1.05904360592365,1.75551915832732
5.29890187499404,-1.05372088551521,0.703025940656662,-1.1186869597435,1.68998038204806
5.30883287500183,-0.958669424951077,0.321380513906479,-1.10177476555109,1.49540634446293
5.31876487498812,-0.755441405028105,0.0558391553163529,-0.947191340625286,1.21284012279146
5.3286958749959,-0.586818376779556,0.0604783362150192,-0.959597670435906,1.12642848223203
5.33862687498913,-0.54889859855175,0.376584661602974,-1.15402460753918,1.3322456506413
5.34855887498998,-0.512490325570107,0.865253430604935,-0.667947909235954,1.20725483740147
5.35848987499776,-0.466652540266514,1.54298607051373,0.0122697973251343,1.61205494790437
5.36842087499099,-0.688898629099131,2.59205958902836,0.251787537932396,2.69383577793944
5.37835187499877,-1.26869011446834,3.78842096149921,-0.126199578344822,3.99720331252374
5.38828387499962,-1.78949050292373,4.57041179537773,-0.777956547439098,4.96952277679512
5.39821487499285,-1.84893885210156,4.52832470655441,-0.71698909163475,4.94351826984841
5.40814587500063,-1.45317166864872,3.80145908296108,-0.277193982303143,4.07917094049952
5.41807787500147,-0.820375465750694,2.76849055051804,0.371167508661747,2.91124048347083
5.4280088749947,-0.130367619842291,1.67997405409813,0.847741312086582,1.88625922687327
5.43793987498793,0.433283503800631,0.678897405266762,1.00028113514185,1.28421128746961
5.44787087499572,0.770194953382015,-0.2244319242239,0.89925352782011,1.20508375730606
5.45780287499656,0.843425482213497,-1.05814196527004,0.802423928976059,1.5731862968212
5.46773387498979,0.68216146722436,-1.88330220758915,0.710037629306316,2.12516467773836
5.47766487499757,0.269739951789379,-2.78661341071129,0.635249109864235,2.87080395950867
5.48759687499842,-0.378053043633699,-3.6580116802454,0.406420079469681,3.69988524654598
5.49752787499165,-1.12612973436713,-4.40263354361057,0.112180878818035,4.54576009568512
5.50745887499943,-1.66559838205576,-4.6675556820631,-0.258580833077431,4.96257574881244
5.51738987499266,-1.86821142107248,-4.26311196148396,-0.614755203723908,4.69491868624781
5.5273218749935,-1.73070859014988,-3.31379895865917,-0.822597992420197,3.82796071290745
5.53725287500129,-1.41297439992428,-2.11270777344704,-0.842678208053112,2.67771121541374
5.54718387499452,-1.06044591441751,-0.711862252950668,-0.891926089525223,1.5578271899529
5.55711587499536,-0.752963062673807,0.71597927749157,-1.05778323858976,1.48272892984184
5.56704687498859,-0.447031477242708,1.91549171447754,-1.29836429536343,2.3568401501486
5.57697787499637,-0.141378950178623,2.69576580584049,-1.53060283720493,3.1032058154032
5.58690987499722,0.0926583413779736,2.89755029439926,-1.70892566531897,3.36523553505338
5.59684087499045,0.166778962612152,2.57403905510902,-1.87028952151537,3.18613797157103
5.60677187499823,0.000858663618564606,1.84405511140823,-1.92652891874313,2.66684338984644
5.61670287499146,-0.394011995494366,0.968867846131325,-1.93813651889563,2.20234500515643
5.62663487499231,-0.904612500965595,0.194490087032318,-1.87311314195395,2.08918716572203
5.63656587500009,-1.3972209776938,-0.362843704819679,-1.8116559818387,2.31645837673955
5.64649687499332,-1.82763262152672,-0.683176397681236,-1.76092524647713,2.62827485497576
5.65642887499416,-2.16365266308188,-0.77429122030735,-1.73520656079054,2.87955926296315
5.66635987500195,-2.38549047008157,-0.70259324669838,-1.72733006894588,3.02784927303866
5.67629087499518,-2.47971498817205,-0.540892590880394,-1.67688087701797,3.04195343375651
5.68622187498841,-2.47762431621552,-0.355890780687332,-1.64377014130354,2.99453849157457
5.69615387498925,-2.36701399952173,-0.20466658115387,-1.59591945201159,2.86209758405999
5.70608487499703,-2.18575338408351,-0.117448927760124,-1.53093232780695,2.67115441316838
5.71601587499026,-2.00805576950312,-0.0726966780424118,-1.5127454406023,2.51514841480502
5.72594787499111,-1.87208476290107,-0.0806395357847214,-1.56946343243122,2.44426257999355
5.73587824999413,-1.79176433891058,-0.184435214996338,-1.61995413959026,2.42253734937112
5.74580925000191,-1.75709619730711,-0.331281019449234,-1.67051150500774,2.44698648316693
5.75574024999514,-1.77573638990521,-0.47017168700695,-1.62518476635218,2.45265706255068
5.76567224999599,-1.80217165187001,-0.517810707092285,-1.66348987609148,2.50662106411044
5.77560324998922,-1.80658966183662,-0.378060498833656,-1.58383588850498,2.43212501092146
5.785534249997,-1.74124629601836,-0.0527722907066345,-1.29618679225445,2.17136449691869
5.79546624999784,-1.50690275654197,0.383661546707153,-1.09241541981697,1.90034827059394
5.80539724999107,-1.19634704679251,0.83663189470768,-0.779155811369419,1.65477580415054
5.81532824999886,-0.842243175208569,1.18518441975117,-0.563641768097878,1.55939979407169
5.82525924999209,-0.509031551331282,1.446605245471,-0.578851253092289,1.63916095295168
5.83519124999293,-0.190849756747484,1.61751585066319,-0.537647678554058,1.71518109336938
5.84512225000071,0.144578985124826,1.66486894190311,-0.620409753620625,1.78258237931405
5.85505324999394,0.286562683582306,1.5227646446228,-0.770095843076706,1.73031151590086
5.86498524999479,0.180384702533484,1.17833733022213,-0.934928559958935,1.51496168827136
5.87491624998802,-0.138138423264027,0.778710545897484,-1.2245086991787,1.45770157873213
5.8848472499958,-0.597690689563751,0.528369024395943,-1.61517754912376,1.80144566987899
5.89477824998903,-1.11507484227419,0.538136213421822,-1.94070724725723,2.30202673912045
5.90471024998988,-1.71162854075432,0.746590036153793,-2.15783249080181,2.85364854212442
5.91464124999766,-2.31983369350433,1.11935354232788,-2.27958321511745,3.43963375272501
5.92457224999089,-2.78097026288509,1.52098065912724,-2.29994965195656,3.91624133194386
5.93450424999173,-2.98020156472921,1.86434319555759,-2.26091247081757,4.17960549788311
5.94443524999952,-2.81901020139456,2.18679608881474,-2.22127711951733,4.20273335953082
5.95436624999275,-2.21076996535063,2.44484424054623,-2.01966629326344,3.86572362389927
5.96429824999359,-1.39141440019012,2.60842711508274,-1.57042559176683,3.34756069206094
5.97422925000137,-0.511176456212998,2.53101114928722,-0.944510684609413,2.74943980485917
5.9841602499946,0.401761895120144,2.19285789728165,-0.48701810002327,2.28193448805861
5.99409124998783,1.29132307827473,1.84028365731239,0.0378326547145844,2.24846404054384
6.00402324998868,2.2403165307641,1.49982426345348,0.537742695808411,2.74911952925914
6.01395424999646,2.95473869472742,1.11690999090672,0.633716554641724,3.2217332840466
6.02388524998969,3.10122781902552,0.685074403882027,0.56913756608963,3.22658619805616
6.03381724999053,2.59056007057428,0.150609072446823,0.603901602029801,2.66427883617524
6.04374824999832,1.62289485052228,-0.458839198350906,0.700582681596279,1.82623580064231
6.05367924999155,0.447845117300749,-1.05586739838123,0.836131665408611,1.41934399422883
6.06361024999933,-0.613663967102766,-1.57448619067669,1.16765475958586,2.05402236276419
6.07354225000017,-1.49995918795466,-2.03576075434685,1.68136247545481,3.03663945642811
6.0834732499934,-2.28811196386814,-2.38612942457199,2.31982609212399,4.03864619491532
6.09340425000119,-2.91079891562462,-2.45201701998711,2.84634184151888,4.75255717191166
6.10333625000203,-3.31178693175316,-2.26957862913609,3.16736099749804,5.11381418548171
6.11326724999526,-3.51781299054623,-1.92709668338299,3.16016716808081,5.10640444870727
6.12319824998849,-3.45205140262842,-1.39084795117378,2.82213407635689,4.67071275659379
6.13312924999627,-2.92396392166615,-0.653269643783569,2.09226035267115,3.65429605068527
6.14306124999712,-1.90505501925945,0.239825304150581,1.37781538456678,2.36328712535432
6.15299224999035,-0.663636245504022,1.28632604777813,0.873281365334988,1.69046387437902
6.16292324999813,0.513205074593425,2.25872268855572,0.377815792858601,2.34690272608777
6.17285524999898,1.53160417288542,3.04605203032494,-0.157898796200752,3.41308897388983
6.18278624999221,2.31562662184238,3.46338067531586,-0.559625315666199,4.20360712339664
6.19271724999999,2.75850467562676,3.30185192763805,-0.804474839866161,4.37707139140767
6.20264824999322,2.82196626126766,2.61670969605446,-0.878653787076473,3.94749232940385
6.21258024999406,2.472430819273,1.65769031524658,-0.886950401365757,3.10604770598201
6.22251125000184,1.86673382967711,0.67055869102478,-0.913256147503853,2.1836622769841
6.23244224999507,1.28938735753298,-0.232723860740662,-0.906595584154129,1.59329711803282
6.24237424999592,0.80196594581008,-0.985524809360504,-0.890410198867321,1.5515279083378
6.25230524998915,0.401204363107681,-1.4634335321188,-0.902690813541413,1.7656311474253
6.26223624999693,0.11821520537138,-1.62654161274433,-0.947255367636681,1.88597592357019
6.27216724999016,-0.103183475732803,-1.5221740758419,-0.97761820435524,1.81201492828183
6.28209924999101,-0.227738963216543,-1.2614560854435,-1.06429118961096,1.66608890133537
6.29203024999879,-0.32361736625433,-0.986540470719338,-1.16539334893227,1.56081131397875
6.30196124999202,-0.385248042494059,-0.790640035271645,-1.27856065303087,1.55185213957341
6.31189324999286,-0.420542128533125,-0.675426498055458,-1.36047722071409,1.57605675793373
6.32182425000065,-0.449411147832871,-0.59903905749321,-1.46663254380226,1.64676324671724
6.33175524999388,-0.498533752709627,-0.571927857398987,-1.63727856248617,1.80452721449041
6.34168625000166,-0.621370304971933,-0.556543248295784,-1.84486290425062,2.02468777311579
6.35161824998795,-0.765430495887995,-0.603214554190636,-1.95603835433722,2.185369004553
6.36154924999573,-0.928886047303677,-0.654393478631973,-1.92492093443871,2.23525853484376
6.37148024998896,-1.03116174280643,-0.702972146272659,-1.87330697715282,2.25094278223864
6.38141224998981,-1.02837305948138,-0.884431128501892,-1.839301032722,2.28534414465359
6.39134324999759,-0.973966325819492,-1.11042016625404,-1.80251532196999,2.33038727154749
6.40127424999082,-0.810900929868221,-1.20158352077007,-1.63625793099403,2.18602454061894
6.4112052499986,-0.599023854732513,-1.11019446372986,-1.42336314797401,1.9019263857588
6.42113724999945,-0.371353450119495,-0.769963111281395,-1.31140767931938,1.56541901068935
6.43106824999268,-0.0867700490355492,-0.174639959335327,-1.2595867305994,1.27459283251883
6.44099925000046,0.154371901899576,0.521061174273491,-1.06304748684168,1.19390342604072
6.4509312500013,0.3016008451581,1.21144134163857,-0.906495596766472,1.54281802588255
6.46086224999453,0.335107145011425,1.78939533948898,-0.738992456495762,1.96477538929524
6.47079324998776,0.244234689474106,2.26044352412224,-0.784579396247864,2.40516534531523
6.48072424999555,0.062338043153286,2.69611839294434,-1.04332219719887,2.89161920514524
6.49065624999639,-0.0393181398510933,2.92651038408279,-1.68815752476454,3.37874011618013
6.50058724998962,-0.15892278984189,3.00791122734547,-2.10908513098955,3.67709484436875
6.5105182499974,-0.19890809699893,2.90406350791454,-1.80378065943718,3.42443775770743
6.52045024999825,-0.174816691428423,2.5000302618742,-1.61561404377222,2.98176473322809
6.53038124999148,-0.162733858823776,2.00909277319908,-1.8215339756012,2.71678525179999
6.54031224999926,-0.201556739509106,1.47800011575222,-2.06813503324986,2.54995921088172
6.55024324999249,-0.143028742074966,0.984300987124443,-2.22058977931738,2.43317172068116
6.56017524999334,0.131991830170155,0.667233964204788,-2.21078078269959,2.31304446031067
6.57010625000112,0.574548287093639,0.509804699420929,-1.58043836385012,1.75721142372884
6.58003724999435,1.03661047071219,0.3739797270298,0.964554062783718,1.46450901132496
6.58996924999519,0.828597820401192,0.923346102833748,2.77233421772718,3.03726511657657
6.59990024998842,-0.334216906428337,2.433433983922,2.80895679116249,3.73142602087552
6.60983124999621,-2.32544263511896,3.69292248129845,1.03374445796013,4.48486203873339
6.61976224998944,-4.63875902205706,4.10054007053375,-1.1679938980937,6.30053361873047
6.62969424999028,-5.89226377129555,3.49459720551968,-0.971602004170418,6.91917570479721
6.63962524999806,-5.35503329157829,1.86581844806671,-0.941333892345429,5.74837103290455
6.64955624999129,-3.79020816296339,0.339146693944931,-0.815301252007485,3.89171100290516
6.65948724999907,-1.87252213463187,-0.264062013030052,0.44422203630209,1.94252441656422
6.66941924999992,0.0428998517990112,-0.441488170623779,1.08738009005785,1.1743711774134
6.67935024999315,1.31031571179628,-0.368527783155441,1.44953177690506,1.98843716616724
6.68928125000093,1.94831330537796,-0.134559634923935,1.49923544883728,2.4620596991775
6.69921325000178,2.22653902888298,0.064582496881485,1.46998767614365,2.66880323629465
6.70914424999501,2.11623627573252,-0.155567511320114,1.40781101614237,2.54648563366778
6.71907524998824,1.50190002501011,-0.909726183414459,1.29886306285858,2.18411324568429
6.72900624999602,0.589484414756298,-1.70270919799805,0.983412210345268,2.0527566985992
6.73893870832399,-0.303579250574112,-2.23121212363243,0.585506261587143,2.32664683275766
6.74886970833177,-1.0688736525178,-2.43375791966915,0.2384655341506,2.66880765653443
6.758800708325,-1.55201446384192,-2.3252686804533,-0.112303085625172,2.79789837472923
6.76873270832584,-1.75086189597845,-1.96470538973808,-0.318577651083469,2.65086332484815
6.77866370833362,-1.68030003637075,-1.38656895875931,-0.545726484060288,2.2458403961607
6.78859470832686,-1.45159058153629,-0.709472495913506,-0.801492175161839,1.80356761606219
6.79852570833464,-1.04386218756437,-0.0671739828586579,-1.01559703946114,1.45794305689968
6.80845770833548,-0.522365103363991,0.296372557282448,-1.20960414648056,1.35049775457258
6.81838870832871,-0.0489394408464432,0.31978130042553,-1.23375811725855,1.27546628370709
6.82831970832194,0.186441102325916,0.153654302358627,-1.18037917792797,1.20485058532406
6.83825170832279,0.171515207290649,-0.0344272363185883,-1.05282216846943,1.06725686662263
6.84818270833057,-0.0351549223065376,-0.168725500702858,-0.935031470954418,0.950782843148209
6.8581137083238,-0.361591231226921,-0.256760594844818,-0.824428170919418,0.936138894913999
6.86804470833158,-0.831639688163996,-0.248338850140572,-0.739724527895451,1.14038990375608
6.87797670833243,-1.39318274438381,-0.0773914074897766,-0.686025745868683,1.55485655711282
6.88790770832566,-1.85753615945578,0.221258640289307,-0.650615884959698,1.98057996540162
6.89783870833344,-2.21646515339613,0.435451505184174,-0.581215574741364,2.33241234217032
6.90777070833428,-2.46121673673391,0.405829510688782,-0.548408017158508,2.55402364323605
6.91770170832751,-2.56706244975329,0.162080140113831,-0.56814120054245,2.63417235892158
6.9276327083353,-2.47508896350861,-0.232242050170898,-0.601339644491673,2.55765734905735
6.93756370832853,-2.23627288877964,-0.692857632637024,-0.660098314583302,2.43242634361453
6.94749570832937,-1.89792492449284,-1.174039041996,-0.719360722303391,2.34477430469009
6.9574267083226,-1.50481573909521,-1.55065235495567,-0.782271500229836,2.2980299899327
6.96735770833038,-1.18763060241938,-1.81757365643978,-0.806025813817978,2.31597021935253
6.97728970833123,-1.10378299176693,-2.00144987761974,-0.800193800926209,2.42166236799823
6.98722070832446,-1.27391606345773,-2.05468994557858,-0.871166427433491,2.56973614472081
6.99715170833224,-1.63699409544468,-2.00234976410866,-0.945644459724426,2.75379695884687
7.00708270832547,-2.06025620251894,-1.8213825327158,-0.940408570468426,2.90627910392489
7.01701470832632,-2.43905739739537,-1.49386478126049,-0.924598284065723,3.00591333198029
7.0269457083341,-2.63060677349567,-1.0381193447113,-0.884979597330094,2.96327060160149
7.03687670832733,-2.4863650265336,-0.422466593384743,-0.80380270242691,2.64699600530948
7.04680870832817,-2.01964875161648,0.257780349254608,-0.721885550022125,2.16022002020594
7.0567397083214,-1.37403983741999,0.926657381057739,-0.509349201321602,1.73381544161219
7.06667070832918,-0.63736492484808,1.55809702992439,-0.542159390151501,1.76856925406252
7.07660170832241,0.138628419935703,2.09698987305164,-0.747591371834278,2.23057777845474
7.08653370832326,0.977750643789768,2.52887574613094,-1.06910520225763,2.91448019281226
7.09646470833104,1.81756605505943,2.63379584491253,-1.55827741652727,3.55930546933552
7.10639570832427,2.51590779125691,2.40648358225822,-2.18602250218391,4.11091834336806
7.11632770832512,2.96552680760622,2.0167444396019,-2.7704680788517,4.53178781026126
7.1262587083329,3.1372300028801,1.69825595855713,-3.19602755695581,4.7896636141348
7.13618970832613,3.01781290233135,1.55359642803669,-3.42083370298147,4.81902062644889
7.14612070833391,2.55060253769159,1.57013059973717,-3.3764425188303,4.51345183739396
7.15605270833476,1.79707887321711,1.70554860591888,-3.16398130685091,4.01860252249673
7.16598370832799,0.921179709434509,1.97444568157196,-2.96865477561951,3.68237952733834
7.17591470832122,0.180514803081751,2.36567761838436,-2.6211456862092,3.53545200739445
7.18584670832206,-0.378197323679924,2.75049574434757,-2.11668768078089,3.49122138989815
7.19577770832984,-0.762074340283871,2.91240689992905,-1.65646210759878,3.43609341618996
7.20570870832307,-0.946011664867401,2.85382832407951,-1.3154267629981,3.28171018558851
7.21563970833086,-0.862422793507576,2.5776584815979,-0.794363542199135,2.83180326994835
7.2255717083317,-0.682637138217688,2.21547200381756,-0.141280716955662,2.322556759943
7.23550270832493,-0.576800780743361,1.87926645934582,0.634885705411434,2.06577380775924
7.24543370833271,-0.577447190433741,1.49967808306217,1.31038061589003,2.07354213100607
7.25536470832594,-0.700877965986729,1.0045200741291,1.87752691268921,2.24173990694869
7.26529670832679,-0.939508391618729,0.251499270200729,2.44300938427448,2.62949096832195
7.27522770833457,-1.33004304796457,-0.772565706968308,2.94642600059509,3.3237476525761
7.2851587083278,-1.7845781108737,-1.98775102078915,3.27832740962505,4.22886554044424
7.29509070832864,-2.15975856363773,-3.1390519952774,3.35389857888222,5.07610482158217
7.30502170832187,-2.41040852576494,-3.89605358362198,3.10556031346321,5.5347816260528
7.31495270832966,-2.55550572037697,-4.01123379170895,2.62801967293024,5.43388382466312
7.32488370832289,-2.46804833114147,-3.39510858535767,2.12268575459719,4.70359646270695
7.33481570832373,-2.17263267070055,-2.37035539090633,1.61642885327339,3.59885532338949
7.34474670833151,-1.71052049338818,-1.0719104039669,1.28084896087646,2.39069996716688
7.35467770832474,-1.13284372664988,0.330555379986763,1.08306952267885,1.60176195459999
7.36460970832559,-0.506211950853467,1.56332619488239,0.673375587165356,1.77585866897752
7.37454070833337,0.0172817382216454,2.5525405973196,0.0896348923444748,2.5541723852094
7.3844717083266,0.472322877645493,3.21896881520748,-0.392484995126724,3.27702511516546
7.39440270833438,0.974711553454399,3.33764858186245,-0.665993185043335,3.54026942350015
7.40433470833523,1.43326891601086,2.96102065086365,-0.752499232292175,3.37463452466252
7.41426570832846,1.68696454659104,2.24968172371388,-0.829288668930531,2.9316611222793
7.42419670832169,1.70142017930746,1.37701051533222,-0.899866608381271,2.3665900571856
7.43412870832253,1.55943896591663,0.457300211191177,-0.918636170625687,1.86677952248155
7.44405970833032,1.31125740587711,-0.416297196149826,-0.932482962012291,1.66199392731532
7.45399070832355,0.94865285217762,-1.1124298542738,-0.91779066324234,1.72620454064956
7.46392170833133,0.509662027359009,-1.57773373425007,-0.894438638091087,1.88388417787098
7.47385370833217,0.0983399346470833,-1.89209349632263,-0.856078564524651,2.07907648974524
7.4837847083254,-0.254341601729393,-2.05573718190193,-0.765491745471954,2.20833027960268
7.49371570833318,-0.497153517454863,-2.02879145801067,-0.661955390274525,2.19119632592069
7.50364770833403,-0.64827349036932,-1.86851284503937,-0.639026995897293,2.07844996857713
7.51357870832726,-0.729142090827227,-1.66317968130112,-0.647274201214314,1.92789489663374
7.52350970833504,-0.768740019947291,-1.46836331963539,-0.69111194640398,1.79574156803854
7.53344070832827,-0.819962359964848,-1.29959045648575,-0.842996588945389,1.75268847069909
7.54337270832912,-0.878960034996271,-1.14387734949589,-1.04127362519503,1.77912250739998
7.55330370832235,-0.947711011916399,-1.12048030078411,-1.17914980083704,1.88255850357084
7.56323470833013,-0.995219639092684,-1.20134846270084,-1.13692120939493,1.93036009470811
7.57316570832336,-1.07657809004188,-1.3037402254343,-1.02968210488558,1.97964749298841
7.5830977083242,-1.13285724833608,-1.50051598906517,-0.929301784336567,2.09726383293065
7.59302870833199,-1.1134947784245,-1.70025161325932,-0.763946034014225,2.17125302828933
7.60295970832522,-0.965899799466133,-1.83228758990765,-0.654098778963089,2.17211543141227
7.61289170832606,-0.697926730066538,-1.8879349565506,-0.724933995902538,2.13937594151245
7.62282270833384,-0.453625528514385,-1.69212866127491,-0.791986795216799,1.92258123631376
7.63275370832707,-0.326061063855886,-1.17223926901817,-0.727878946065903,1.4178393707741
7.64268470833486,-0.194731869399548,-0.33859939455986,-0.726409248411655,0.824766904727713
7.65261670832115,-0.0737208178639412,0.743781033754349,-0.641739080697298,0.985126404505244
7.66254770832893,0.0152869606018066,1.87033366799355,-0.58379185795784,1.95938629530078
7.67247870832216,0.0116358129680157,2.86364404499531,-0.690751611739397,2.94579877074132
7.68241070832301,0.191418690830469,3.77392454445362,-0.772392629384995,3.85690782316054
7.69234170833079,0.412645756155252,4.39957018733025,-1.40782475709915,4.63772195156408
7.70227270832402,0.605328615009785,4.69018908441067,-1.75582998275757,5.04452528074001
7.7122037083318,0.982542583197355,4.62501251041889,-1.62559553325176,4.9998691469933
7.72213570833264,1.46052688121796,4.11296832740307,-1.22501155972481,4.53324393281902
7.73206670832587,1.89879732906818,3.45643710672855,-0.303562878370285,3.95531783688378
7.7419975833327,2.06370021253824,2.97824420928955,0.219522017240524,3.6300119908136
7.75192858332594,1.57702125102282,2.7553577041626,0.161165635585785,3.17883099049942
7.76186058332678,0.658728896677494,2.43790184140205,0.586921872496605,2.59263696495371
7.77179158333456,-0.317801579385996,1.9936052531004,0.80483795195818,2.17329792664558
7.78172258332779,-1.57026610895991,1.97651793479919,-0.47683283507824,2.5689936457959
7.79165458332864,-2.56616607159376,2.05420638084412,-1.56813260614872,3.64197913675606
7.80158558332187,-2.69817778229713,1.2422117292881,-2.15068193078041,3.66724502762608
7.81151658332965,-2.15435135096312,0.198235813379288,-2.13095927238464,3.03669468364286
7.82144758332288,-1.25240006402135,-0.376891055703163,-1.39112949460745,1.90939625510173
7.83137958332372,-0.250825524777174,-0.342342197299004,-0.311834641993046,0.526642637732823
7.84131058333151,0.687341807931662,0.193286730051041,0.520300451517105,0.883465381774234
7.85124158332474,1.39292780578136,0.701071801185608,1.18298791319132,1.95734768124962
7.86117258333252,1.69165489062667,0.929828326106072,1.49774908661842,2.44326202268129
7.87110458333336,1.63097526401281,0.8463546448946,1.4100768122077,2.31618503429285
7.88103558332659,1.37028621733189,0.619435315132141,1.45867155969143,2.09501960518159
7.89096658333438,0.834113498926163,0.228239631056786,1.47949320226908,1.71369156905092
7.90089858333522,0.0760199430584908,-0.549258787035942,1.60260574311018,1.69582116236605
7.91082958332845,-0.571327348351479,-1.49426122248173,1.44997967362404,2.15909068681929
7.92076058332168,-1.22221395939589,-2.36788728117943,1.12753613591194,2.89344688506644
7.93069158332946,-1.83101874411106,-2.92500063300133,0.823501679599285,3.54773355265683
7.94062358333031,-2.26001901626587,-3.05351541638374,0.629839850664139,3.85075844340581
7.95055458332354,-2.46755628794432,-2.92888201475143,0.491460522115231,3.86118082136873
7.96048558333132,-2.43528170406818,-2.54662613868713,0.404542830884457,3.54676705894732
7.97041758333216,-2.20163515269756,-1.81087333202362,0.373573345541954,2.87506810610242
7.98034858332539,-1.9047614890337,-0.993727283477783,0.240046621263027,2.16176608919971
7.99027958333318,-1.65005502104759,-0.330492814779282,0.0077925843000412,1.68284514958304
8.00021058332641,-1.43117532044649,0.0771674591302872,-0.270600954294205,1.4585755006405
8.01014258332725,-1.23342307180166,0.197351714372635,-0.502155371904373,1.3462689890029
8.02007358333503,-1.05532916218042,0.18659751534462,-0.674799384176731,1.26644876807809
8.03000458332826,-0.871382774412632,0.308458167314529,-0.752771127820015,1.1921068540217
8.03993558332149,-0.717043763101101,0.448522371053696,-0.767246202528477,1.14192417035116
8.04986758332234,-0.701667632460594,0.53956702709198,-0.709035416543484,1.13410813641413
8.05979858333012,-0.830835257470608,0.652540495991707,-0.695773931443691,1.2649892045555
8.06972958332335,-1.08357939988375,0.688214943408966,-0.728216038048267,1.47583289103291
8.0796615833242,-1.401373231709,0.614291519522667,-0.757645951509476,1.70740399242438
8.08959258333198,-1.54238146841526,0.298293367624283,-0.909571816921234,1.8152797077632
8.09952358332521,-1.63109951734543,-0.227056739330292,-0.755271397233009,1.81176027162484
8.10945458333299,-1.66908244550228,-0.757674018144608,-0.842988402843475,2.01755683314842
8.11938658333384,-1.66020666450262,-1.15220670819283,-1.10423761278391,2.30286933471054
8.12931758332707,-1.51050069451332,-1.45419551610947,-1.30032779037952,2.46721488922862
8.13924858333485,-1.14659191936255,-1.66285925388336,-1.42736176639795,2.4732843629368
8.14918058332114,-0.699494514763355,-1.7605521941185,-1.45085821777582,2.38617396106971
8.15911158332892,-0.346732286810875,-1.80059743523598,-1.4792353400588,2.35595237510743
8.16904258332215,-0.185013796985149,-1.79348546683788,-1.60936804801226,2.41679244843167
8.17897358332994,-0.204863047599792,-1.75569549679756,-1.61185691535473,2.39217855966564
8.18890558333078,-0.304815936684609,-1.6905692088604,-1.47747094273567,2.26580171061636
8.19883658332401,-0.53133210092783,-1.52280031263828,-1.4131103476882,2.14432167558673
8.20876758333179,-0.80961132645607,-1.17323680400848,-1.42905131936073,2.01845058685435
8.21869858332502,-1.06068521171808,-0.66759415268898,-1.43988240927458,1.90892546308134
8.22863058332587,-1.16031270325184,-0.0773820519447327,-1.28277094066143,1.73141989058003
8.23856158333365,-0.958725850582123,0.513392550945282,-0.952597676217556,1.44574185132603
8.24849258332688,-0.440179563760757,1.05887929916382,-0.616942354738712,1.30215255927284
8.25842458332772,0.257258777618408,1.47449938774109,-0.555398363471031,1.59649549490654
8.26835558332095,0.894592127501965,1.80126577198505,-0.702759599983692,2.1304282459831
8.27828658332874,1.36762105643749,2.07155390024185,-1.08966255068779,2.7109200264836
8.28821758332197,1.58362743526697,2.21535272061825,-1.51177377954125,3.11466266086544
8.29814958332281,1.66611615300179,2.20148663341999,-1.86728931516409,3.33305502789053
8.30808058333059,1.77726119756699,2.16671382665634,-2.07511134624481,3.48703215791236
8.31801158332382,1.87214104235172,2.15985211908817,-2.18878063380718,3.60008804360627
8.32794358332467,1.80625578582287,2.12453201293945,-2.2953356140852,3.61175328879355
8.33787458333245,1.47879358291626,2.04807148218155,-2.35367445409298,3.45271062975882
8.34780558332568,1.01701645106077,1.9058718752861,-2.23230496823788,3.10642166132583
8.35773658333346,0.534492520987988,1.73069104850292,-2.04151806905866,2.72924344583865
8.36766858333431,0.184497634023428,1.66769490122795,-2.01423393756151,2.62152322434239
8.37759958332754,0.250029426366091,1.75733564078808,-1.85177606731653,2.56511556697145
8.38753058333532,0.480285615921021,1.97954503834248,-1.72544931203127,2.66954081446157
8.39746158332855,0.526211986541748,2.18684988319874,-1.68204192191362,2.80864317660707
8.40739358332939,0.449353845119476,2.19980205059052,-1.60073843479157,2.75742841729842
8.41732458332263,0.376615067124367,2.10718390882015,-1.29826460033655,2.5035083197111
8.42725558333041,0.271186991482973,1.95893360316753,-0.72700157135725,2.10701080460553
8.43718758333125,-0.061118021607399,1.7536624199152,-0.115890937149525,1.75854997225027
8.44711858332448,-0.756559246480465,1.50174273490906,0.43501647233963,1.7369088826113
8.45704958333226,-1.69966060593724,1.07163090705872,1.00491563826799,2.24657392853518
8.46698058332549,-2.60890307843685,0.402629329562187,1.61935538470745,3.09690127574032
8.47691258332634,-3.28291367322207,-0.531037693619728,2.25379348576069,4.01735090505306
8.48684358333412,-3.53344786047936,-1.76138015985489,2.75045686036348,4.81172804624047
8.49677458332735,-3.3121766486764,-3.10121700167656,3.03872254550457,5.4609427530494
8.5067065833282,-2.72568951666355,-4.25267935931683,2.91065390467644,5.82980027335561
8.51663758332143,-1.91157305672765,-4.95982057034969,2.53411865204573,5.88860670990321
8.52656858332921,-1.08097256496549,-4.96070759296417,2.01885674625635,5.46378111485126
8.53649958332244,-0.396115238964558,-4.19595727443695,1.36332569181919,4.42962997025876
8.54643158332328,0.082475707679987,-3.03870266497135,0.625061798393726,3.10342043240559
8.55636258333107,0.444950160831213,-1.62510846018791,0.226126739680767,1.70002689843329
8.5662935833243,0.761095662564039,-0.11372834444046,0.113490070402622,0.777869359200473
8.57622558332514,1.04265166774392,1.31420674145222,-0.0100846928358078,1.6776064975307
8.58615658333292,1.22261303186417,2.49685931682587,-0.181962719857693,2.78607241562782
8.59608758332615,1.28810360133648,3.31022280156612,-0.315281283259392,3.56597646814417
8.60601858333394,1.30783912360668,3.66273798465729,-0.275885667800903,3.89900059235512
8.61595058333478,1.27297319993377,3.49620986759663,-0.25570868074894,3.72952156924182
8.62588158332801,1.13802414044738,2.90376588463783,-0.388989821970463,3.14297125959245
8.63581258332124,0.971414454728365,2.05288198649883,-0.50542601197958,2.32667701818112
8.64574458332209,0.797579803168774,1.11306193828583,-0.548339604735375,1.47503109899578
8.65567558332987,0.549519572854042,0.278137430548668,-0.614378350675106,0.869938474261351
8.6656065833231,0.213695559203625,-0.312050111889839,-0.719893111288548,0.813195644377487
8.67553758333088,-0.130669336169958,-0.645465949773789,-0.786052017509937,1.02546503692906
8.68546958333172,-0.482834124863148,-0.776321958303452,-0.752680788338184,1.18420139512241
8.69540058332495,-0.812535372823477,-0.771459998488426,-0.673387866318226,1.30721669200701
8.70533158333274,-1.04607331216335,-0.689514779448509,-0.59478959351778,1.38689389141902
8.71526358333358,-1.17243880525231,-0.529934908747673,-0.516662898659706,1.38650074302985
8.72519458332681,-1.21695014968514,-0.400379905700684,-0.492726736664772,1.37260750862433
8.73512558333459,-1.22408156007528,-0.400952932834625,-0.427919999063015,1.35729674193343
8.74505620832497,-1.28187690138817,-0.523535715937615,-0.400896799564362,1.44153261498857
8.75498820832581,-1.40429216176271,-0.705883474946022,-0.441372395753861,1.63251877401872
8.7649192083336,-1.57408770292997,-0.95446147620678,-0.487970611453056,1.90443275641858
8.77485020832683,-1.73333077400923,-1.21181731760502,-0.497519114613533,2.17266243415324
8.78478220832767,-1.83516500473022,-1.42393500566483,-0.506727894544601,2.37743446892943
8.79471320833545,-1.8090077778697,-1.69390621483326,-0.506419161558151,2.52948369677234
8.80464420832868,-1.66407752126455,-1.94582239151001,-0.495940366387367,2.6079370435446
8.81457520832191,-1.43347868487239,-2.11844915449619,-0.469848920702934,2.60066260181032
8.82450720832276,-1.16831344842911,-2.21510479867458,-0.444601520597935,2.54348502944473
8.83443820833054,-0.968849719762802,-2.18719428420067,-0.431834125220776,2.43083716608697
8.84436920832377,-0.864780244678259,-1.89417452037334,-0.47981973901391,2.13681280583133
8.85430120832461,-0.802111395299435,-1.28782761275768,-0.753127807974815,1.69383710721997
8.8642322083324,-0.878544297963381,-0.406860959529877,-1.0859054222703,1.45484243476384
8.87416320832563,-0.938576491624117,0.605765109658241,-1.3010684864223,1.7148342208709
8.88409420833341,-0.800713179856539,1.52597008824348,-1.19948027729988,2.09963788359831
8.89402620833425,-0.373426288068295,2.41336809396744,-0.89743913680315,2.60176666014969
8.90395720832748,0.0841972741484642,3.1982521301508,-0.940923125445843,3.33485264996625
8.91388820833527,0.479417012035847,3.93903705060482,-1.11222841769457,4.12103210501863
8.92382020832156,0.845829564929009,4.40934556245804,-1.77966264903545,4.82959160659038
8.93375120832934,1.11891046956182,4.4743239158392,-2.35081662744284,5.17666629778348
8.94368220832257,1.36750513538718,4.07019769906998,-2.19205697491765,4.82096394781272
8.95361320833035,1.71211766034365,3.30873702406883,-1.4843754811585,4.01029402243389
8.9635452083312,2.03049226686358,2.54533039569855,-0.529544022381306,3.29879107260516
8.97347620832443,1.86669465333223,2.09026557505131,0.0986129996180534,2.8041903692006
8.98340720833221,0.838544226586819,2.13522949397564,-0.081704606115818,2.29543831425418
8.99333920833306,-0.589893573671579,2.24946771562099,-0.40946589410305,2.36130085976221
9.00327020832629,-1.82650293946266,1.99263461530209,-0.757603266835213,2.80725282222411
9.01320120833407,-2.65424209624529,1.80289246737957,-0.762211457490921,3.29793703098543
9.0231322083273,-3.104715975523,1.67226274609566,-0.853521138578653,3.62825334212589
9.03306420832814,-2.96370452284813,1.05570659995079,-0.97217283859849,3.29289856388544
9.04299520832137,-2.08261025413871,0.40730827152729,-0.0551386588811874,2.12278255372552
9.05292620832915,-0.92494443923235,0.114952751398087,0.927081888914108,1.31461674242852
9.06285820833,-0.0176467506587505,0.264530375003815,1.22501097500324,1.25337130012892
9.07278920832323,0.760476588606834,0.678450093269348,1.83075474232435,2.09530000177048
9.08272020833101,1.42328713417053,0.834963684082031,1.95227976411581,2.55622903852673
9.09265120832424,1.84108808800578,0.535210851430893,1.72916901826859,2.58187557737125
9.10258320832509,1.88113362148404,-0.134997591376305,1.4834231159091,2.39946498044221
9.11251420833287,1.37412608385086,-0.963202478885651,1.25559629827738,2.09583004413493
9.1224452083261,0.511413853168488,-1.64888031542301,1.03132341831923,2.01096454891074
9.13237620833388,-0.351440757215023,-2.00906470656395,0.74617283731699,2.17177934057363
9.14230820833473,-1.07535646051168,-2.12242993891239,0.443387930989266,2.42026717948718
9.15223920832796,-1.62495906382799,-2.02945336282253,0.258277070224285,2.61263850465235
9.16217020832119,-1.93258371055126,-1.67230250716209,0.151682913601399,2.56017249028797
9.17210220832203,-1.94702574849129,-1.00766236782074,0.00391617268323898,2.19232936604394
9.18203320832981,-1.86705045640469,-0.253411894440651,-0.0986080294847489,1.88674813859291
9.19196420832304,-1.77142743051052,0.467173819541931,-0.270770523548126,1.85189718819729
9.20189520833083,-1.69839716881514,0.906143594384194,-0.524849877655506,1.99527355286381
9.21182720833167,-1.59155509024858,0.934452304244042,-0.726868839561939,1.98357934656754
9.2217582083249,-1.50691167354584,0.501737295985222,-0.760775673687458,1.76105159825767
9.23168920833268,-1.44483178496361,-0.211686163544655,-0.685093407332897,1.61297950868831
9.24162120833353,-1.39521582126617,-0.885932693481445,-0.624490525424481,1.76677455880361
9.25155220832676,-1.36867063164711,-1.37850857198238,-0.599559167325497,2.03298213865402
9.26148320833454,-1.3634315264225,-1.57211339056492,-0.558343898355961,2.15458440281824
9.27141420832777,-1.36517604321241,-1.53476137697697,-0.594203994870186,2.13828821741622
9.28134620832861,-1.34604950845242,-1.33262547075748,-0.688334226608276,2.01532725184696
9.29127720832184,-1.29159848213196,-0.943352935910225,-0.84175405561924,1.80739904030279
9.30120820832963,-1.22395642966032,-0.520517967939377,-0.939721814990044,1.62852245493354
9.31114020833047,-1.18032509118319,-0.252272856831551,-0.95612325489521,1.53979888093282
9.3210712083237,-1.13527755707502,-0.200056636333466,-0.873847083449364,1.44654295290263
9.33100220833148,-1.02094431817532,-0.235862646102905,-0.885380131602287,1.37180773655684
9.34093320832471,-0.873722537755966,-0.38080810546875,-1.00893179833889,1.38792984688448
9.35086520832556,-0.645828184783459,-0.660068786144257,-1.13058867484331,1.45979984874181
9.36079620833334,-0.372383144795895,-0.994968062639237,-1.19792316377163,1.60114039312634
9.37072720832657,-0.241816865801811,-1.34704704344273,-1.23960416346788,1.84651824142653
9.38065820833435,-0.320122193098068,-1.64110878109932,-1.38186341196299,2.169161759583
9.3905902083352,-0.540331258177757,-1.76596905469894,-1.56151326566935,2.41845575720946
9.40052120832843,-0.829426663219929,-1.68778067171574,-1.70872598290443,2.54092437316227
9.41045220832166,-1.12780452311039,-1.38071765005589,-1.77830551028252,2.51807362073178
9.4203842083225,-1.32138799935579,-0.882450091838837,-1.79858803957701,2.39993819619117
9.43031520833029,-1.37305896699429,-0.243054721355438,-1.59177143722773,2.1161528377673
9.44024620832352,-1.15471750259399,0.491539167165756,-1.33084294706583,1.82924197781753
9.4501772083313,-0.700042691230774,1.11604460299015,-1.03584828615189,1.67588692856436
9.46010920833214,-0.10119045227766,1.64107018947601,-0.734798833429813,1.80091093617336
9.47004020832537,0.503957483768463,1.97845160901547,-0.711348282694817,2.16200376825643
9.47997120833315,0.931263232827187,2.17024846851826,-0.691487337648869,2.46076905906473
9.48990220832638,1.21301482737064,2.19266435444355,-0.725307925343514,2.60868808584593
9.49983420832723,1.30493627339602,2.06115579664707,-0.826004580259323,2.57555925233451
9.50976520833501,1.21051104962826,1.87068742454052,-1.01384872198105,2.44799870765259
9.51969620832824,0.915553226172924,1.7089166021347,-1.16835467129946,2.26355611835769
9.52962820832909,0.451549182236195,1.53380067944527,-1.29137687265873,2.05526042522177
9.53955920832232,-0.0720938301086426,1.36002493858337,-1.34655178427696,1.91521984681861
9.5494902083301,-0.559787283539772,1.24999788165092,-1.45750036239624,2.00004095291317
9.55942120832333,-0.985968320667744,1.26438670992851,-1.68497371584177,2.32592856826727
9.56935320832417,-1.30472138822079,1.3957134193182,-1.8581919246912,2.66518124688233
9.57928420833196,-1.49093181788921,1.46830777108669,-1.81968333184719,2.77309444924447
9.58921520832519,-1.53779315829277,1.4009156870842,-2.01176378130913,2.89388425335186
9.59914620833297,-1.2034993609786,1.36668725609779,-2.0149373576045,2.7159192408697
9.60907820833381,-0.527303369343281,1.41921688735485,-1.77178294122219,2.33054504515144
9.61900920832704,0.114785521030426,1.47974609434605,-1.49453896522522,2.10629317478529
9.62894020833483,0.550465652346611,1.51046034872532,-1.31703182369471,2.07823861096588
9.63887220832112,1.11696817070246,1.54710835754871,-1.14468280345202,2.22518783137025
9.6488032083289,1.86084392935038,1.58080820024014,-0.730101765096188,2.54847862120583
9.65873420832213,2.28095862641931,1.61316903054714,-0.121823229789734,2.79641332350378
9.66866520832991,2.00818747803569,1.47503850102425,0.395417373776436,2.52287741000776
9.67859720833076,1.0254048666358,1.13479077637196,0.852563510835171,1.75101964199915
9.68852820832399,-0.297466425150633,0.509663196802139,1.25206048697233,1.38415978532244
9.69845920833177,-1.54171093896031,-0.307898588776588,1.70798864901066,2.3214003070194
9.708390208325,-2.60811136543751,-1.21419304132462,2.31563948571682,3.6930605009851
9.71832220832584,-3.49222265124321,-2.24522146761417,2.88797255516052,5.05737322766
9.72825320833363,-4.07172031402588,-3.27463255405426,3.04961503118277,6.0499815303965
9.73818408332591,-4.23650186777115,-4.01407670795918,2.76580433964729,6.45836152117707
9.74811508333369,-3.94424516558647,-4.26438782393932,2.39501222223043,6.28316456762414
9.75804708333453,-3.2085169172287,-3.94884926319122,1.88955171167851,5.42755902617888
9.76797808332776,-2.15486532121897,-3.23994043886662,1.21127908140421,4.07527368566122
9.77790908332099,-1.02508750900626,-2.30633773505688,0.72551374733448,2.62609374296488
9.78784108332184,0.10495065048337,-1.10117864191532,0.531477696597576,1.22722352586154
9.79777208332962,1.15639740765095,0.276793740391731,0.425600116252899,1.26293515197589
9.80770308332285,1.98235754907131,1.66050048708916,0.103466773331165,2.58799317873269
9.81763408333063,2.56874557077885,2.9324511551857,-0.340183112919331,3.91324010702913
9.82756608333148,2.83143524229527,3.77244695305824,-0.535106770992279,4.7470749732137
9.83749708332471,2.69286266326904,3.92731162905693,-0.52009258300066,4.79017559697414
9.84742808333249,2.14719699025154,3.44662372469902,-0.515540233254433,4.09334236861608
9.85735908332572,1.38858157038689,2.65673798024654,-0.49308867931366,3.03801776146386
9.86729108332656,0.668677934110165,1.86318603157997,-0.460547170042992,2.03241139134654
9.87722208333435,0.0859400367736816,1.11798646330833,-0.524299362301827,1.23780824176099
9.88715308332758,-0.361288637816906,0.447304396033287,-0.663035078644753,0.877625328964332
9.89708508332842,-0.639938576817513,-0.0327315437793732,-0.831181704998016,1.04950262638109
9.90701608332165,-0.753755214214325,-0.328750344514847,-0.956025021672249,1.26103431913542
9.91694708332943,-0.738482579290867,-0.54761805832386,-1.0011450612545,1.35924004185897
9.92687808332266,-0.665957370847464,-0.633662175536156,-0.997598432600498,1.35655062759126
9.93681008332351,-0.573690792918205,-0.633382678627968,-0.958610660433769,1.28422316665069
9.94674108333129,-0.501007855832577,-0.600348833799362,-0.95124960064888,1.23138271734862
9.95667208332452,-0.44137795060873,-0.517171021699906,-1.03665987968445,1.23973548272084
9.9666030833323,-0.403099007159472,-0.467160955667496,-1.16615553349257,1.3193357784766
9.97653508333315,-0.443057855665684,-0.501274196505547,-1.24374837756157,1.41226276246186
9.98646608332638,-0.545903654694557,-0.547403465509415,-1.30923660814762,1.52044791110201
9.99639708333416,-0.762583340406418,-0.654170699715614,-1.23418934941292,1.59144462851716
10.0063280833274,-0.988501334488392,-0.799956988692284,-0.865828796625137,1.53841658113409
10.0162600833282,-1.14929245591164,-0.996700007915497,-0.612789369821549,1.64005940952163
10.0261910833215,-1.31797965735197,-1.19750508785248,-0.722579906880856,1.92177275827662
10.0361220833292,-1.50905994057655,-1.40242017567158,-0.856613000035286,2.23110512643691
10.0460530833225,-1.686100474298,-1.51995856583118,-0.90311298251152,2.44311725270245
10.0559850833233,-1.78214040666819,-1.56142643451691,-0.842044077515602,2.51458051530802
10.0659160833311,-1.74160019874573,-1.4351575666666,-0.770311020612717,2.38458121310828
10.0758470833243,-1.60814159452915,-1.0736669075489,-0.797264930605888,2.09153326198615
10.0857780833321,-1.41382166147232,-0.527410081028938,-0.898012456297875,1.75598389960883
10.095710083333,-1.09864387392998,0.143089553117752,-0.697878929078579,1.30939985550143
10.1056410833262,-0.62748956233263,0.854482859373093,-0.196315003037453,1.07815754331935
10.115572083334,-0.326660695821047,1.54236158788204,-0.333445804864168,1.6114504592912
10.1255040833348,-0.108025408834219,2.29263127684593,-0.810342959314585,2.43402616506822
10.135435083328,-0.0782521176338196,2.88721124768257,-1.6576026070118,3.33012891423609
10.1453660833213,-0.0187821337580681,3.2839495074749,-1.75084581613541,3.72157738171222
10.1552970833291,0.254635131955147,3.2518342602253,-1.46723217576742,3.57659549907562
10.1652290833299,0.669867257773876,2.94322055697441,-1.53500754475594,3.38637232927685
10.1751600833231,0.974516694992781,2.49353049695492,-1.82759008303285,3.24152165497377
10.1850910833309,1.07946339860559,1.90620809018612,-1.89574230507016,2.89701732808985
10.1950220833241,1.09503804221749,1.26242263019085,-1.87564367070794,2.5121421915545
10.204954083325,0.980706996023655,0.607684750556946,-1.389124776721,1.8057504294363
10.2148850833328,0.813833600878716,0.173740657567978,0.264296194016933,0.873134253241279
10.224816083326,0.324680536240339,0.454025185704231,1.40301220625639,1.50996674492238
10.2347470833338,-0.709685334563255,1.62790693759918,1.10137393891811,2.08967912008177
10.2446790833346,-1.96438759356737,2.60072633206844,0.37479658305645,3.28071159213156
10.2546100833279,-3.13867280334234,2.6874574971199,-0.419320791363716,4.15325471062596
10.2645410833211,-3.58019518017769,2.52902192652226,-0.772046766579151,4.45082078304476
10.2744720833289,-2.82373095095158,1.99151253461838,-0.876028971970081,3.56468868467289
10.2844040833297,-1.58323128640652,0.991333433389664,-1.14431355178356,2.19062018323763
10.2943350833229,-0.320181542336941,0.543213350772858,-0.913692057430744,1.11014870189681
10.3042660833307,0.997568611800671,0.957101494073868,-0.719695475399494,1.55857241811821
10.314197083324,2.21100911647081,1.74286495149136,0.0131205672025681,2.81537061530764
10.3241290833248,3.09224094092846,2.42075605094433,0.499218607842922,3.95869083326222
10.3340600833326,3.3441135558486,2.71887984931469,0.598349086046219,4.3512555358416
10.3439910833258,2.87964992076159,2.59739985108376,0.794234318733215,3.95849438620364
10.3539220833336,1.89593000069261,1.89647481501102,0.860416906177998,2.81628914423471
10.3638540833344,0.891482432037592,0.720355333685875,0.680508605539799,1.33294587122474
10.3737850833277,-0.199918642044067,-0.65533488035202,0.656332415342331,0.94879055026483
10.3837160833355,-1.21756308406591,-2.02146782040596,0.672861032187939,2.45388141140805
10.3936470833287,-2.04130055263639,-3.19990455329418,0.694496899545193,3.85857785198956
10.4035790833295,-2.63498399913311,-3.94157708108425,0.676163247227669,4.78919276065577
10.4135100833228,-3.00567086666822,-4.24016690254211,0.461244742870331,5.21783666215964
10.4234410833305,-3.06100686907768,-3.93903354227543,0.1826322260499,4.99190372800835
10.4333730833314,-2.77839339494705,-3.03042183816433,0.0379762038588524,4.11149225541873
10.4433040833246,-2.38603966981173,-1.8560939437151,0.0297959491610527,3.02310400621572
10.4532350833324,-1.95930080831051,-0.623524857759476,-0.0353627908229828,2.05642734679954
10.4631660833256,-1.51222533077002,0.48194388628006,-0.221288461089134,1.60251800100854
10.4730970833334,-1.15571152925491,1.30876239895821,-0.445027490258217,1.8018261910809
10.4830290833343,-0.882763210237026,1.80967874586582,-0.597321437895298,2.10023830761078
10.4929600833275,-0.719029769897461,2.0361770761013,-0.563956933021546,2.23183070987526
10.5028910833353,-0.682046423256397,2.05862570643425,-0.567923099398613,2.24179922595653
10.5128230833216,-0.804952557384968,1.82345420122147,-0.740669145584107,2.12638769438057
10.5227540833293,-1.07538160353899,1.41377605319023,-0.839912182688713,1.96485643150668
10.5326850833226,-1.41153656959534,0.954839791059494,-0.799227256178856,1.88226425374194
10.5426160833304,-1.80873339727521,0.424134219288826,-0.69371863514185,1.98309149640997
10.5525480833312,-2.22681384801865,-0.143643869161606,-0.588634521961212,2.30777470202787
10.5624790833244,-2.53574739396572,-0.6699880027771,-0.609052999019623,2.69255349538017
10.5724100833322,-2.65414152413607,-1.08987889766693,-0.671533421874046,2.946737242853
10.5823410833254,-2.5213524261117,-1.40325457334518,-0.775904467105866,2.98803768322094
10.5922730833263,-2.15713404089212,-1.59039938807488,-0.868592775464058,2.81727721276286
10.6022040833341,-1.6720247644186,-1.63078142881393,-0.894210596680641,2.5009453157975
10.6121350833273,-1.17773901388049,-1.57995216786861,-0.917407378256321,2.17369600801217
10.6220660833351,-0.886516830325127,-1.48831635832787,-0.878016732931137,1.94214084355978
10.6319980833214,-0.886708326637745,-1.38312494874001,-0.748550607562065,1.80544019353655
10.6419290833292,-1.10663350939751,-1.3121678173542,-0.646298008561134,1.83415463385496
10.6518600833224,-1.46815574347973,-1.18716721057892,-0.690182531476021,2.01027341417552
10.6617910833302,-1.77369615018368,-1.01890773296356,-1.02647929251194,2.28863075646229
10.671723083331,-2.01142259627581,-0.763706005811691,-1.23694104909897,2.48175157561506
10.6816540833242,-2.17929557293654,-0.508789622783661,-1.28704759418964,2.58160562134933
10.691585083332,-2.20062796980143,-0.217705872058868,-1.30623991012573,2.56835005616574
10.7015160833253,-1.94285814553499,0.163579366207123,-1.21774113178253,2.29877129065842
10.7114480833261,-1.46101205393672,0.495540416836739,-1.08647435635328,1.88694012980815
10.7213790833339,-0.922242879420519,0.682578227519989,-0.561579747498035,1.27742584055832
10.7313100833271,-0.110859992802143,0.793023945093155,-0.305211208462715,0.85693103413663
10.7412418333261,0.810776822715998,0.850085168480873,-0.48734466701746,1.27181314444967
10.7511738333269,1.58585273936391,0.843025240302086,-0.423755027353764,1.84531536327588
10.7611048333347,2.27731040239334,0.589974703788757,-0.758671553134918,2.47180002133985
10.7710358333279,2.51940501093864,0.100396692752838,-1.21081978261471,2.79706375526722
10.7809668333211,2.2179816287756,-0.322975634336472,-1.62099202036858,2.76611115034441
10.790898833322,1.67795793414116,-0.400177592039108,-1.82240345656872,2.5093503725927
10.8008298333298,1.09887747019529,-0.0781948149204254,-1.73644997119904,2.05643006836128
10.810760833323,0.419672209024429,0.501525042057037,-1.41809948444366,1.5616204015756
10.8206918333308,-0.417721139341593,1.12294782578945,-1.09656957417727,1.62418213286238
10.830622833324,-1.31486250668764,1.67251534581184,-0.88598005592823,2.30458925905933
10.8405548333249,-2.1040318210423,2.18910690844059,-0.772685867249966,3.13307874302398
10.8504858333326,-2.57134290397167,2.66053340792656,-0.77784749686718,3.7809111432142
10.8604168333259,-2.61077769577503,2.91377514839172,-0.861552727818489,4.00606027100855
10.8703478333337,-2.329698677212,2.76440510094166,-0.988012507259846,3.74774601637004
10.8802798333345,-1.87545202821493,2.30275514602661,-1.25867514967918,3.22556424600526
10.8902108333277,-1.35188663765788,1.7893327742815,-1.59583408266306,2.75245266582096
10.900141833321,-0.764258567690849,1.40395273089409,-1.75766366958618,2.37582743570677
10.9100728333287,-0.0799182817339897,1.23260943174362,-1.65026288956404,2.0613298007963
10.9200048333296,0.538932165652514,1.24598844587803,-1.38944374233484,1.94254703921164
10.9299358333228,0.99115026935935,1.37877052724361,-0.85544209510088,1.90135956655161
10.9398668333306,1.20760498344898,1.58220802366734,-0.166914618015289,1.99738642128039
10.9497978333238,1.18464647591114,1.73174530148506,0.523691836595535,2.16254068211932
10.9597298333247,0.895899857282639,1.68752924144268,1.15089079231024,2.23045760121721
10.9696608333325,0.354623104333878,1.36651710212231,1.69909561872482,2.20908407673634
10.9795918333257,-0.345743961185217,0.841738852858543,1.96346665710211,2.16408514080648
10.9895228333335,-1.04259728863835,0.216555140018463,2.02013436287642,2.28360418615367
10.9994548333343,-1.6535326525569,-0.579871884584427,2.00563122153282,2.66326458174748
11.0093858333275,-2.07174525037408,-1.57262268304825,1.95385734289885,3.25312603538276
11.0193168333353,-2.23796024903655,-2.79408615231514,1.76944434732199,3.99328396199127
11.0292478333286,-2.15357484072447,-3.97462963700295,1.39499011874199,4.73091563836551
11.0391798333294,-1.82679544642568,-4.77308506071568,1.13156282097101,5.23449682564739
11.0491108333226,-1.34578477576375,-4.98699959814549,0.881601368486881,5.24008803623552
11.0590418333304,-0.892891903370619,-4.41895370721817,0.487377996146679,4.5345281043092
11.0689728333236,-0.51597351193428,-3.18494796037674,0.201396818161011,3.23275159170808
11.0789048333245,0.000472893565893173,-1.62390217959881,0.196341023147106,1.6357286785725
11.0888358333323,0.554969470202923,-0.0973526322841644,0.336684431433678,0.656372648912024
11.0987668333255,1.01992924153805,1.34689852416515,0.389363166689873,1.73378054197105
11.1086978333333,1.40272203817964,2.56959634065628,0.15156713873148,2.93145476988
11.1186288333265,1.6436445723474,3.31494969069958,-0.127874220907688,3.70227102579607
11.1285608333274,1.73916176363826,3.37127182602882,-0.264385071694851,3.80263814097689
11.1384918333351,1.63810068100691,2.86884514331818,-0.287154421806336,3.31603738812133
11.1484228333284,1.40041019529104,2.01900672733784,-0.285522463917732,2.4736733732472
11.1583538333216,1.13348845526576,1.11409631073475,-0.463642393648624,1.65558779199466
11.1682858333224,0.874447592496872,0.549985011219978,-0.660737707614899,1.22626115605706
11.1782168333302,0.612138282358646,0.20151259303093,-0.831805018186569,1.05224530892725
11.1881478333235,0.414461755156517,-0.0447341233491898,-0.935310675501824,1.02400475974818
11.1980788333312,0.244008402228355,-0.0858084744215012,-0.891190509796143,0.927967520655378
11.2080108333321,0.0235088767111301,-0.00767037749290466,-0.78858444660902,0.788972072641838
11.2179418333253,-0.231272727996111,0.10143340408802,-0.770901881754398,0.811212377538779
11.2278728333331,-0.504183186292648,0.247116197347641,-0.824356250166893,0.997411814408165
11.2378038333263,-0.755577645152807,0.321151887774467,-0.954644786417484,1.25911984382339
11.2477358333272,-0.936385101377964,0.262541736960411,-1.03736388444901,1.42192441799413
11.257666833335,-1.03505818113685,0.191002807617188,-1.05803349941969,1.49240155345344
11.2675978333282,-1.01815314978361,0.173941217064858,-1.14207640707493,1.53987983394987
11.2775288333214,-0.94514335334301,0.135751882195473,-1.28333987474442,1.59958924915026
11.2874608333223,-0.844706022441387,0.0670184469223022,-1.43077507853508,1.66287012780123
11.29739183333,-0.73851970911026,-0.134446198940277,-1.48375319123268,1.6628321243129
11.3073228333233,-0.673125033974648,-0.526269873976707,-1.3469903254509,1.59513016035593
11.3172538333311,-0.645392713397741,-0.920913661122322,-1.08385538846254,1.56184385546312
11.3271858333319,-0.69853995680809,-1.19369679629803,-0.830812453329563,1.61341855863787
11.3371168333251,-0.831273798644543,-1.34868426382542,-0.663689089715481,1.71768698534122
11.3470478333329,-1.02474515452981,-1.41234056174755,-0.65057261556387,1.86227098517142
11.3569788333261,-1.19141375094652,-1.3199358433485,-0.583814954459667,1.87150668113991
11.3669098333339,-1.24261664897203,-1.11080081999302,-0.424592640995979,1.71995741481805
11.3768418333348,-1.21126490190625,-0.8706480717659,-0.225054067969322,1.50858876469672
11.386772833328,-1.19928424939513,-0.420355748534203,-0.134097412526608,1.27787471303697
11.3967038333212,-1.24200795382261,0.305224072337151,-0.0962969174981117,1.28258278017925
11.406634833329,-1.17632486477494,1.22260659992695,-0.273419312238693,1.71850667906116
11.4165668333299,-1.03751123428345,2.22836336016655,-1.04051904201508,2.66921574680525
11.4264978333231,-0.913469863235951,2.96452137887478,-1.6450275850296,3.5112576026766
11.4364288333309,-0.699494222402573,3.19321358442307,-1.64491590321064,3.65946081978669
11.4463598333241,-0.268596674948931,2.8647175937891,-1.69183191508055,3.33782059057157
11.4562918333249,0.290752652138472,2.21536383032799,-1.92568019539118,2.94968103705686
11.4662228333327,0.801071906536818,1.52142329335213,-2.10864980578423,2.72081771539933
11.476153833326,1.31983775630593,0.939243512749672,-1.90443755328655,2.50020648618891
11.4860848333337,1.9574636131525,0.507858161330223,-0.665847881734371,2.12906954100986
11.496015833327,2.23108670085669,0.553961117863655,0.541411823630333,2.36172554493765
11.5059478333278,1.54946025386453,1.3075964641571,0.607312867641449,2.11647454758732
11.515878833321,0.195772527605295,2.25968514025211,0.110828710198402,2.27085596607214
11.5258098333288,-1.20782074570656,2.6843450242281,-0.690300937592983,3.0234176931577
11.5357408333221,-2.00161403819919,2.48034736454487,-1.05375918477774,3.35693166838769
11.5456728333229,-2.0463174636662,1.95895874619484,-0.408240610063076,2.86209624700205
11.5556038333307,-1.77481574580073,1.39074094712734,-0.0106039255857468,2.25482676868905
11.5655348333239,-1.24536016255617,0.964895832538605,-0.32863807797432,1.60933181427167
11.5754658333317,-0.390399000942707,0.817664696574211,-0.225974712073803,0.933836980665094
11.5853978333325,0.673272237628698,0.764156241416931,0.310512586534023,1.06472923020553
11.5953288333258,1.59713041037321,0.628569250702858,0.563444716930389,1.8064868667402
11.6052598333335,2.1044794254005,0.447140673995018,0.813898504972458,2.300260683199
11.6151908333268,2.04760940596461,0.119011888504028,0.969950165748596,2.26884804097493
11.6251218333346,1.28971260890365,-0.448348124027252,1.06898007184267,1.73409718524671
11.6350538333354,0.414818435311317,-1.29386720180511,0.793128025531769,1.57328278928648
11.6449848333286,-0.275278580635786,-2.16096016645432,0.423702110052109,2.21924550602716
11.6549158333219,-0.729940674304962,-2.75901221394539,0.0783585369586945,2.85501345794007
11.6648468333296,-0.894756288081408,-3.00850471973419,-0.229883283376694,3.14714724595151
11.6747788333305,-0.941580791026354,-2.88216919362545,-0.426405862569809,3.06191045041283
11.6847098333237,-1.02572500169277,-2.36373809695244,-0.38582326233387,2.60542302896093
11.6946408333315,-1.18306875094771,-1.47366849839687,-0.248854866921902,1.9061162759462
11.7045718333247,-1.29293764069676,-0.369613611102104,-0.260999533832073,1.36982579947343
11.7145038333256,-1.43962176963687,0.527398386597633,-0.47098971247673,1.60389875212156
11.7244348333334,-1.54431587353349,1.0909746658802,-0.678862029612064,2.0089775743121
11.7343658333266,-1.51423238754272,1.24664801180363,-0.787214443981648,2.11346577205088
11.7442960833287,-1.3851137329638,1.14989296495914,-0.76532188385725,1.95614709825674
11.7542270833219,-1.20677043959498,1.01522691071033,-0.656850771009922,1.70834232795627
11.7641590833227,-0.98191678494215,0.850589198470116,-0.584371609389782,1.42448332210875
11.7740900833305,-0.813787554055452,0.640681757926941,-0.56836514890194,1.1814238191954
11.7840210833238,-0.790880794376135,0.441491094231606,-0.610344648957253,1.09221216240692
11.7939520833315,-0.791411575376988,0.342858506441116,-0.714872399568558,1.12023514707611
11.8038840833324,-0.822640969455242,0.254513509869576,-0.730910142660141,1.12948879054901
11.8138150833256,-0.961839054375887,0.0885876560211182,-0.682347847223282,1.18261605093634
11.8237460833334,-1.08773355424404,-0.0234789097309113,-0.595451205968857,1.24027322913957
11.8336770833266,-1.11544467866421,-0.0923573559522629,-0.614718073904514,1.27695928781761
11.8436080833344,-1.12686809152365,-0.206636508107185,-0.744428028166294,1.36627355653853
11.8535400833352,-1.07175866872072,-0.398914593458176,-0.89490816950798,1.45212262867295
11.8634710833285,-0.945858906358481,-0.635811027288437,-0.986803887784481,1.50754324850261
11.8734020833217,-0.820560968667269,-0.86751747250557,-0.995405726730824,1.55458657822945
11.8833330833295,-0.658249863535166,-1.01984445691109,-0.99050049751997,1.56667381248416
11.8932650833303,-0.544763740003109,-1.12314253807068,-0.98910739839077,1.59265505957736
11.9031960833236,-0.627970203459263,-1.23797366738319,-1.01417733550072,1.71915125728081
11.9131270833313,-0.857950112074614,-1.32715130746365,-1.09598602205515,1.92317298968439
11.9230580833246,-1.15798551142216,-1.34469587802887,-1.26128066897392,2.17714638345215
11.9329900833254,-1.49679452866316,-1.25861024558544,-1.38689991116524,2.3974955630655
11.9429210833332,-1.81766019523144,-1.03282936871052,-1.39071726590395,2.51092007118568
11.9528520833264,-1.92140324950218,-0.680737524032593,-1.31591997563839,2.42628098251371
11.9627830833342,-1.71512766078115,-0.209364234209061,-1.02672955334187,2.00989299492489
11.9727140833274,-1.22353674575686,0.23343137383461,-0.750508547723293,1.45423363140636
11.9826460833283,-0.761096685826779,0.546514104008675,-0.417054118216038,1.02561199709143
11.9925770833215,-0.345059544593096,0.789545436501503,-0.217024963796139,0.888565090764801
12.0025080833293,0.00637112617492676,0.971640011072159,-0.335291039943695,1.02788374042572
12.0124390833225,0.216107243299484,1.06753083944321,-0.574941512346268,1.2316177070779
12.0223710833234,0.40686578348279,1.08229915201664,-0.910598003268242,1.47176762560572
12.0323020833312,0.56826384589076,1.03191252529621,-1.25107464641333,1.7184164307024
12.0422330833244,0.693406393826008,1.0522707760334,-1.49689802438021,1.95672939071454
12.0521640833322,0.746624096184969,1.18435586929321,-1.69128286153078,2.19558285743013
12.062096083333,0.643884131759405,1.38794948637486,-1.76319601267576,2.33449153585433
12.0720270833262,0.339655986428261,1.5872880846262,-1.69259468436241,2.34514955136016
12.081958083334,-0.106071269363165,1.83642975747585,-1.71122362107039,2.51237171804579
12.0918890833273,-0.228315644860268,2.09784999847412,-1.63114863395691,2.66716113421093
12.101820083335,-0.0784360125660896,2.30028762102127,-1.50714673161507,2.75117549751174
12.1117520833213,0.0145575204491615,2.31514656543732,-1.56753765195608,2.79594167163012
12.1216830833291,-0.0862508162856102,2.05931918621063,-1.60979226350784,2.61527548179056
12.1316140833223,-0.0560015617311001,1.65793823719025,-1.44734287172556,2.20152146516645
12.1415450833301,0.307660607099533,1.29626631438732,-0.893611841797829,1.60421430325797
12.151477083331,0.673787815868855,1.1685894370079,-0.0222758451104164,1.34910618795377
12.1614080833242,0.591799035072327,1.19931538581848,1.00381723880768,1.67219393058967
12.171339083332,0.267748974859715,1.33563327848911,1.8212848842144,2.2743536219361
12.1812700833252,-0.0676249493658543,1.42530091524124,2.42762916058302,2.81592598874283
12.191201083333,-0.491513877958059,1.22926482439041,2.9846419402957,3.26508275737094
12.2011330833338,-0.955023539811373,0.514619881510735,3.34054850846529,3.51228813189488
12.2110640833271,-1.29654873490334,-0.626493489146233,3.39301469743252,3.6859302015794
12.2209950833349,-1.37289933800697,-1.90510822892189,3.21010794460774,3.97732107985257
12.2309260833281,-1.28713223263621,-2.95482084810734,2.94354536980391,4.36487513828229
12.2408580833289,-1.16346859171987,-3.52397829473019,2.39036543995142,4.41428693246851
12.2507890833222,-0.954134836122394,-3.42490599632263,1.63167108267546,3.91186718731456
12.2607200833299,-0.716965848952532,-2.67941932976246,1.14218107223511,2.99965090886274
12.2706510833232,-0.425520301759243,-1.68511317193508,0.859537777304649,1.93893762665337
12.280582083331,-0.221682124882936,-0.647621233463287,0.707659566700459,0.984549789938429
12.2905140833318,-0.0340635395050049,0.363055374026299,0.76207317084074,0.844822494402371
12.300445083325,0.119359432384372,1.20928839683533,0.709895541965962,1.40732966334218
12.3103760833328,0.229454755559564,1.85808433592319,0.523945605754852,1.94413113807733
12.320307083326,0.334602384120226,2.13242633879185,0.313858070969582,2.18121703059207
12.3302390833269,0.523131454065442,2.00251640975475,0.163168599307537,2.07614124793321
12.3401700833347,0.753483318686485,1.54878533899784,0.0320330938696861,1.72264310201978
12.3501010833279,0.955731856897473,0.922922764420509,-0.0622667071223259,1.33007028167317
12.3600320833211,1.05860170260072,0.214886929392815,-0.0584271329641342,1.08177062589045
12.3699630833289,1.12830584876239,-0.434734051823616,-0.184892467260361,1.22321421207245
12.3798950833298,1.07585639744997,-0.850437755584717,-0.429873261451721,1.43718557777663
12.389826083323,0.921297457739711,-0.96661608338356,-0.582073945999146,1.45668999341124
12.3997570833308,0.77048022441566,-0.901786834001541,-0.500773382484913,1.28749106824067
12.409688083324,0.578146517425776,-0.859897965788841,-0.539243383705616,1.16810159406176
12.4196200833248,0.254334146529436,-0.872077131271362,-0.619222184121609,1.09938186918181
12.4295510833326,-0.0591337689757347,-0.926963775157929,-0.597540416121483,1.1044515344672
12.4394820833259,-0.268443477898836,-1.06159650027752,-0.59857098788023,1.24793279376728
12.4494130833336,-0.471346538811922,-1.22610148072243,-0.707334169149399,1.4919162267118
12.4593440833269,-0.621269879043102,-1.44635030686855,-0.830572425127029,1.77981909928127
12.4692760833277,-0.685569516867399,-1.70616958022118,-0.901486579477787,2.04785210694241
12.4792070833209,-0.644147841185331,-1.97652202785015,-0.899411987364292,2.26506240331148
12.4891380833287,-0.508709662109613,-2.11280249834061,-0.958478513360024,2.37516335814841
12.499069083322,-0.270431385040283,-2.00801513135433,-1.24207665860653,2.37655471799366
12.5090010833228,-0.0542662543058395,-1.7620210146904,-1.42297021508217,2.26550372226089
12.5189320833306,0.0820446217060089,-1.41964139521122,-1.31965225338936,1.93999873217066
12.5288630833238,0.258910323679447,-1.1321501737833,-1.14215651392937,1.62890149303653
12.5387940833316,0.454540471583605,-0.990109611153603,-0.929479832053185,1.43208129678444
12.5487250833248,0.592253509908915,-0.914418573975563,-0.723057039678097,1.30756913050859
12.5586570833257,0.566983744204044,-0.882443075180054,-0.508044102787972,1.16545491440145
12.5685880833335,0.279565320611,-0.76597940325737,-0.470479835271835,0.941399219300856
12.5785190833267,-0.208008264899254,-0.434290248155594,-0.584494108557701,0.757303651680161
12.5884500833345,-0.578393854647875,0.166953794360161,-0.744342074096203,0.957318204055224
12.5983820833353,-0.691899420171976,0.998665257096291,-1.02621295183897,1.5903364819709
12.6083130833285,-0.549892625212669,1.89717998921871,-1.21112880796194,2.31700384122049
12.6182440833218,-0.207086451351643,2.85106668412685,-1.1023634339869,3.06376748077639
12.6281750833296,0.280554084777832,3.56817681312561,-1.08545460194349,3.74016150147197
12.6381060833228,0.800388074666262,3.87402829170227,-1.20505267381668,4.13531960332576
12.6480380833236,1.31510004982352,3.71202591955662,-1.39203230470419,4.17688622131918
12.6579690833314,1.76671048164368,3.17162858784199,-1.61508706346154,3.97353747279764
12.6679000833246,2.08190771117806,2.76350462973118,-1.83484311550856,3.91636908563755
12.6778310833324,2.20756115958095,2.55685993552208,-1.84016700536013,3.84669645420384
12.6877620833257,2.0811819255352,2.41885921418667,-1.56536628842354,3.55423264885165
12.6976940833265,1.82566488727927,2.24106117367744,-1.23352188974619,3.14276688879274
12.7076250833343,1.48979409590364,2.03092978477478,-0.513605389595032,2.57059384872362
12.7175560833275,1.08831330567598,2.05020337700844,0.731558014154434,2.43370845963147
12.7274870833353,0.265019640773535,2.54852940738201,1.18502917617559,2.82303590106007
12.7374190833216,-1.07349953100085,3.30992576301098,1.03277557432652,3.62968802882952
12.7473505833332,-2.4941231122613,3.56909658014774,0.101198638379574,4.35538077117813
12.7572815833264,-3.31037424445152,3.03145094811916,-1.15084810763598,4.63386705204518
12.7672125833342,-3.1654939815402,1.88252803623676,-1.34128051936626,3.91960423844246
12.7771435833274,-2.36434430703521,0.593143309950829,-0.782277347445488,2.56005875648892
12.7870755833283,-1.31416010990739,-0.102042683959007,-0.104626276195049,1.3222617598236
12.7970065833215,-0.14531164124608,-0.244899517893791,0.635655491352081,0.696526489540991
12.8069375833293,0.603137955665588,-0.127406736016274,1.25138542592525,1.39498148882518
12.8168685833225,0.867082147300244,0.037587656378746,1.33739153623581,1.59432129863275
12.8268005833233,0.884658585190773,0.140095193982124,1.35187655121088,1.62167126306242
12.8367315833311,0.806060897111893,-0.0120990586280823,1.36702990293503,1.58702593318164
12.8466625833244,0.576831624805927,-0.575937293171883,1.30210475921631,1.53620157955138
12.8565935833321,0.117990964651108,-1.37954703748226,1.26663964211941,1.8765521254028
12.8665245833254,-0.622813251614571,-2.14483179152012,1.12259406924248,2.49968342087563
12.8764565833262,-1.48577983617783,-2.59371493577957,0.899752295315266,3.12161065519128
12.886387583334,-2.29883166432381,-2.65027271389961,0.73773618221283,3.58508398137122
12.8963185833272,-2.84308845072985,-2.42410592079163,0.557218894064427,3.77755666400821
12.906249583335,-3.046458119452,-2.03272838830948,0.473411336839199,3.69283225560844
12.9161815833213,-2.92220712572336,-1.48599676787853,0.421992384195328,3.30538325343563
12.9261125833291,-2.59560241699219,-0.922851428389549,0.303251221776009,2.77141984720557
12.9360435833223,-2.15038284569979,-0.466474492549896,0.231062666773796,2.21249515056106
12.9459745833301,-1.6055699890852,-0.139546140432358,0.113092459738255,1.61558596787985
12.9559055833233,-1.06248644649982,-0.0780001026391983,-0.028190011382103,1.06571860345462
12.9658375833242,-0.614081019759178,-0.304162802696228,-0.0910741844773293,0.691306745555623
12.975768583332,-0.317157947123051,-0.682305747270584,-0.155015826523304,0.768218850754446
12.9856995833252,-0.218254048526287,-1.01755527198315,-0.31711994022131,1.08794237794323
12.995630583333,-0.264900503754616,-1.17794088900089,-0.49886280477047,1.30636178482575
13.0055625833338,-0.263542780280113,-1.06411665022373,-0.598405219316483,1.24895470247177
13.015493583327,-0.231343040764332,-0.636858848333359,-0.691890210807324,0.968411513263645
13.0254245833348,-0.325552502274513,-0.0399253731966019,-0.707494382858276,0.779824832214324
13.0353555833281,-0.528900243937969,0.546107137799263,-0.642018139064312,0.995065708825577
13.0452875833289,-0.830003783404827,0.900985180735588,-0.558746771514416,1.3464317773468
13.0552185833221,-1.12398921489716,0.87795241355896,-0.540815115272999,1.52533051650679
13.0651495833299,-1.28394447684288,0.504681953787804,-0.617434397935867,1.51143723979821
13.0750805833231,-1.27589929282665,-0.0751408141851425,-0.69837272644043,1.45646476525448
13.0850115833309,-1.16014605760574,-0.67436347424984,-0.772533254921436,1.54839032557685
13.0949435833318,-0.98693077236414,-1.17875423669815,-0.875534589886665,1.76919606546621
13.104874583325,-0.939492019414902,-1.55441854655743,-0.941061996817589,2.04559525671143
13.1148055833328,-0.901847352683544,-1.77060180366039,-0.91521613419056,2.18768827005825
13.124736583326,-0.94635372698307,-1.81805546700954,-1.0073097807169,2.28376532332592
13.1346685833269,-1.03657070964575,-1.73986708402634,-1.08735026925802,2.29868373514698
13.1445995833346,-1.17559147775173,-1.53442691624165,-1.25745454341173,2.30600806863206
13.1545305833279,-1.33598557323217,-1.2368732213974,-1.41566675037146,2.30625782726081
13.1644615833211,-1.46028451412916,-0.893761530518532,-1.42271498411894,2.2260634451149
13.1743925833289,-1.52343970566988,-0.507947039008141,-1.29071321368217,2.06029593292382
13.1843245833297,-1.49714536160231,-0.0944652771949768,-1.15031688809395,1.89039595466055
13.194255583323,-1.41173215895891,0.337750963568687,-0.939341453611851,1.72899559528184
13.2041865833307,-1.25645379245281,0.741515237689018,-0.599853866994381,1.57744909332827
13.214117583324,-0.890652565956116,1.06632572829723,-0.326436016559601,1.42719060569363
13.2240495833248,-0.445231558084488,1.29067052900791,-0.199686507582665,1.37983196660842
13.2339805833326,-0.070073324739933,1.43127735435963,-0.0994526597857475,1.43643864034676
13.2439115833258,0.235881941914558,1.52508131146431,-0.398800572752953,1.59391191536018
13.2538425833336,0.413816514909267,1.57258058309555,-0.58563636213541,1.7283586858624
13.2637735833268,0.526247069835663,1.57170642435551,-0.757817859649658,1.82249416220601
13.2737055833277,0.578562400639057,1.52875979483128,-1.02519378215075,1.92947227310639
13.2836365833355,0.529360712170601,1.43661527752876,-1.33604375302792,2.0320184864375
13.2935675833287,0.368575730323792,1.33961464762688,-1.63882661283016,2.14852696981923
13.3034985833219,0.126222674846649,1.26800672113895,-1.76313052386045,2.17540857143375
13.3134305833228,-0.110125874876976,1.22883505403996,-1.62663312166929,2.04159217545189
13.3233615833306,-0.28411679327488,1.30485879778862,-1.72316802084446,2.18006579314666
13.3332925833238,-0.177310967445374,1.56301278412342,-1.77479367256165,2.37156925318965
13.3432235833316,0.189107140302658,1.91878252744675,-1.62650419056416,2.5224995104204
13.3531555833324,0.546335471570492,2.1614887547493,-1.7731371563673,2.84860166743161
13.3630865833256,0.799743857681751,2.12652240514755,-2.08469522505999,3.08344644170807
13.3730175833334,0.922646775841713,1.94284381985664,-2.05901600807905,2.97749325823789
13.3829485833267,0.81289015263319,1.710402379632,-1.79411755084991,2.60866335251724
13.3928795833344,0.614429221451283,1.55212936162949,-1.68840281546116,2.3743068231934
13.4028115833353,0.377324626743794,1.52864051163197,-1.4756349170208,2.15791892713344
13.4127425833285,0.0662977775931358,1.66618807375431,-0.819666490852833,1.85807191697789
13.4226735833217,-0.317801725566387,1.83815468609333,0.00218832045793533,1.86542632540829
13.4326045833295,-0.855514892935753,1.95346411764622,0.634279933869839,2.22491321751571
13.4425365833304,-1.51372674956918,1.94116742312908,1.14899804860353,2.71655961699235
13.4524675833236,-2.14404534101486,1.5870658904314,1.77073161184788,3.2017493665332
13.4623985833314,-2.55356444478035,0.771412051320076,2.38229569762945,3.57646483521256
13.4723295833246,-2.72438675701618,-0.406459255814552,3.03456371337175,4.09830077702394
13.4822615833255,-2.80381182610989,-1.7480227804184,3.51786035299301,4.82620822802492
13.4921925833332,-2.77799636900425,-3.03416814923286,3.59911530822516,5.46599224166305
13.5021235833265,-2.62688619017601,-4.00818329930306,3.47088265299797,5.91718605486016
13.5120545833342,-2.42713580176234,-4.500799523592,3.15390363067389,6.00793580719205
13.5219855833275,-2.23153415903449,-4.33513036251068,2.41988364636898,5.44324690096488
13.5319175833283,-1.9483176907897,-3.45906543016434,1.60871842235327,4.28357916196501
13.5418485833216,-1.56525533750653,-2.12645516216755,1.16677826195955,2.88672952333312
13.5517795833293,-1.10539770036936,-0.713916964530945,0.908842669129372,1.59924247863079
