Time (s),Linear Acceleration x (m/s^2),Linear Acceleration y (m/s^2),Linear Acceleration z (m/s^2),Absolute acceleration (m/s^2)
0.0914303750032559,0.649565871208906,-0.179023032188416,-0.660236601233482,0.943343753200105
0.101360375003424,0.67778716519475,-0.164409670829773,-0.650887488126755,0.953981395712226
0.111290375003591,0.711019230633974,-0.346017172336578,-0.876052068471909,1.18014552346609
0.121220375003759,0.72865545630455,-0.547288860082626,-1.05196379721165,1.39179441765545
0.131150375003926,0.751733100861311,-0.704059143662453,-0.832549368739128,1.324364143313
0.141080375004094,0.769546497166157,-0.669772825241089,-0.399029198884964,1.09545504257131
0.151010375004262,0.683378126621246,-0.265892776250839,-0.35806711435318,0.816037187135462
0.160940375004429,0.496632530540228,-0.128003152012825,-0.396069923043251,0.647996960838163
0.170870375004597,0.0549002386629582,-0.25441703081131,-0.696246678829193,0.743304446073595
0.180800375004765,0.0386601819097996,-0.483639578819275,-1.00904231071472,1.11962861551422
0.190730375004932,-0.0597108891606331,-0.937009291648865,-3.02984004020691,3.17198399620201
0.200659374997485,-0.035060343593359,-1.02891641199589,-3.08115520477295,3.24860210036052
0.210589374997653,-0.142222703397274,-0.520759457945824,-1.40382760047913,1.50404442828948
0.220519374997821,-0.110856484472752,6.60735368728638E-05,-0.418255428671837,0.432697085879755
0.230449374997988,-0.459230523258448,0.280348262786865,0.435774856209755,0.69237818224181
0.240379374998156,-0.245076834708452,0.454137452244759,0.999403760433197,1.12477169097115
0.250309374998324,-0.139907352179289,0.495333425402641,1.27169105172157,1.37190648389154
0.260239374998491,-0.0852491882443428,0.118771567940712,1.13845581114292,1.14780474967326
0.270169374998659,-0.0337366801500321,-0.334817415475845,0.549576290845871,0.644418315035642
0.280099374998827,-0.0110550382733345,-0.633922961354256,-0.0587335270643234,0.636733980563932
0.290029374998994,0.285673906803131,-0.662925735712051,-0.187864022254944,0.74590415131928
0.299959374999162,0.56206389695406,-0.776121983528137,-0.0143584227561951,0.95837744228403
0.309889374999329,0.837804261445999,-0.852995327711105,0.37836630821228,1.25406462065726
0.319819374999497,1.08325897246599,-0.954651510715485,0.809857494235039,1.65549952259374
0.329749374999665,1.24278943419457,-1.16865083277226,1.3987756061554,2.20609236956668
0.33967837500677,1.31996390998364,-1.42132188498974,1.96889842808247,2.76387800825501
0.349608375006937,1.35022968292236,-1.58442996561527,2.3097057312727,3.1093856431228
0.359538375007105,1.3136568108201,-1.54393799722195,2.44292109131813,3.17447668353175
0.369468375007273,1.25628626972437,-1.36959975421429,2.48917899906635,3.10645630383477
0.37939837500744,1.17104146689177,-1.11537509679794,2.53648238897324,3.00817928875731
0.389328375007608,1.11436118960381,-0.934264023900032,2.58532008826733,2.96623163054534
0.399258375007776,1.11844225376844,-0.859848849177361,2.80131301850081,3.13649609374352
0.409188375007943,1.04287196159363,-0.754365663528443,3.26897303402424,3.5132369945346
0.419118375008111,0.886472391486168,-0.669572265744209,3.64813485592604,3.81353487553786
0.429048375008279,0.887628970742226,-0.79241934299469,3.87146399527788,4.05019099198865
0.438978375008446,0.891740148067474,-0.965486986041069,4.11094577550888,4.31592872752371
0.448908375008614,0.721623594760895,-0.840548359751701,4.46894389271736,4.60420695384696
0.458838375008781,0.529692834019661,-0.481335775852203,4.75087353497744,4.80448311193577
0.468768375008949,0.422666568160057,-0.135127984285355,4.81591474592686,4.83631486154623
0.478697375001502,0.39490515768528,0.0732831537723541,4.47983257770538,4.49780173289839
0.48862737500167,0.352698785662651,0.1143434715271,3.8723133033514,3.89002328813094
0.498557375001838,0.291566730737686,0.0589709240198135,3.05128061056137,3.0657465799933
0.508487375002005,0.345641196370125,0.0600994366407395,2.25276247546077,2.27991634709628
0.518417375002173,0.403753749132156,0.0699783074855805,1.83690981388092,1.88206049790884
0.52834737500234,0.441534363627434,0.177260096669197,1.63094398140907,1.69892672197171
0.538277375002508,0.410737663507462,0.298362949490547,1.42240508168936,1.51028543470033
0.548207375002676,0.372471145391464,0.381426740884781,1.09606554418802,1.21884403840992
0.558137375002843,0.415152311325073,0.42966919362545,0.738649663478136,0.950037042912359
0.568067375003011,0.476306585669518,0.356413521766663,0.418602753281593,0.727411044118248
0.577997375003179,0.469691630601883,0.192797902822495,0.0209973514080048,0.508155633596991
0.587927375003346,0.25632731616497,0.000798729658126831,-0.452216641902924,0.519811718024287
0.597857375003514,-0.0176819801330566,-0.232785256505013,-0.88740092933178,0.917595791972934
0.607787375003682,-0.244365082383156,-0.34220244884491,-1.23755442202091,1.30704160490288
0.617717375003849,-0.231483666300774,-0.380864823460579,-1.31476105749607,1.38825046004743
0.627647375004017,-0.0597316467761994,-0.539857633709908,-1.55607974052429,1.64814996076559
0.63757637499657,0.140000469088554,-0.715961735844612,-1.77079403087497,1.91517958383047
0.647506374996738,0.37427618086338,-0.944311294555664,-1.94814724445343,2.19706262237984
0.657436374996905,0.546912299394608,-1.16517875611782,-2.00144870817661,2.37961163394349
0.667366374997073,0.577656959295273,-1.26118945240974,-1.87997221827507,2.33636083235829
0.677296374997241,0.37537721157074,-1.25547964632511,-1.52088637277484,2.00754391040282
0.687226374997408,0.150783319473267,-1.26370492458344,-1.09011454045773,1.67571938497028
0.697156374997576,-0.0416444545984268,-1.29103013277054,-0.716186268925667,1.4769616908092
0.707086374997743,-0.293758851885796,-1.29740944504738,-0.535744702219963,1.43408086142873
0.717016374997911,-0.539914936423302,-1.36573240578175,-0.669754991233349,1.61409568832128
0.726946374998079,-0.680613563060761,-1.51680048465729,-1.17386099427938,2.03515801999978
0.736876374998246,-0.687921413183212,-1.75220237016678,-1.77698126211762,2.58865050222142
0.746806374998414,-0.729597442746163,-1.98310189962387,-2.29206175804138,3.11745933019651
0.756736374998582,-0.897429488897324,-1.96962933003902,-2.43832532599568,3.26040638275115
0.766666374998749,-1.0946274214983,-1.8870567047596,-2.60997721195221,3.40164272753386
0.776595375005854,-1.1796131926775,-1.72418368220329,-2.85730273962021,3.5395586730772
0.786525375006022,-4.39956901788712,-3.31928072333336,-4.77788796365261,7.2939732284031
0.79645537500619,-8.77091937303543,-4.06880723118782,-4.31079688221216,10.5861791356724
0.806385375006357,-3.63547417223454,4.14188456296921,4.30237776875496,6.99159028083196
0.816315375006525,-1.53077182173729,4.33838843107224,-1.28499814510345,4.77661980714455
0.826245375006693,0.322492069602013,3.42539306938648,-3.22767005681992,4.71753885097399
0.83617537500686,0.572441827654839,2.28400721848011,-2.70498452603817,3.58626824236894
0.846105375007028,-0.201432486176491,1.46768211901188,-1.71889282912016,2.26919774522961
0.856035375007195,-0.753726562857628,0.756295244693756,-1.21704882144928,1.61904109351636
0.865965375007363,-0.981878485679627,0.517567462921143,-2.02485335826874,2.3091107729616
0.875895375007531,-0.563651708364487,0.838413541316986,-2.54430596351624,2.7375414792456
0.885825375007698,0.112904471755028,0.54669185936451,-2.46222596615553,2.52471307622237
0.895755375007866,0.488630177378655,-0.32087239086628,-1.98699760705233,2.07120207413401
0.905685375008034,0.172170680165291,-0.757232553362847,-1.50053850084543,1.68957381475343
0.915615375008201,-0.264440327882767,-0.540745825767517,-0.897043280303478,1.08028763847105
0.925544375000754,-0.508710100650787,0.313092670440674,-0.729736606478691,0.943042152622481
0.935474375000922,-0.944118921160698,1.78895328998566,-1.09487358927727,2.30010056031058
0.94540437500109,-1.36706615567207,2.56119330704212,-0.420202843844891,2.93345384487241
0.955334375001257,-1.67839530587196,2.27420611560345,0.510202017724514,2.87216475117834
0.965264375001425,-1.4857751584053,1.58309446156025,0.613271180391312,2.25606237419438
0.975194375001593,-1.23688199222088,1.13777519524097,-0.057763766348362,1.68159035150915
0.98512437500176,-1.06452829420567,0.627014476060867,-0.461613117456436,1.3188837373181
0.995054375001928,-1.01242901802063,-0.0145262378454208,-0.667823363542557,1.21293510667696
1.0049843750021,-0.793709238767624,-0.333439226746559,-1.05006052851677,1.35785978185796
1.01491437500226,-0.587638741135597,-0.378778536915779,-1.18539462715387,1.37620961055966
1.02484437500243,-0.324357916116715,-0.375460242033005,-0.789629928767681,0.932573790914538
1.0347743750026,-0.0265750104188919,-0.258348698616028,-0.260673551559448,0.367968723858395
1.04470437500277,0.148005892038345,0.10027097761631,0.191600100696087,0.2620507806074
1.05463404167676,0.290482072234154,0.386034346818924,0.108323470652103,0.495112437237723
1.06456304166932,0.520390498638153,0.369124199151993,-0.437369684278965,0.773531632319421
1.07449304166948,0.794534865617752,0.1389935785532,-1.00877597004175,1.29160126404975
1.08442304166965,1.08447548568249,-0.364444087743759,-1.49426736205816,1.88195151942071
1.09435304166982,1.28830883860588,-1.12725196123123,-1.75329375296831,2.45040315701874
1.10428304166999,1.21815628409386,-1.63883655309677,-1.56608315706253,2.57338423774578
1.11421304167015,0.669475786685944,-1.4193472802639,-0.958224159479141,1.83873273500006
1.12414304167032,0.190915684103966,-0.934951656460762,-0.731293866187334,1.20223713013649
1.13407304167049,0.0434810650348663,-0.50228985786438,-0.420829957723618,0.656721826687409
1.14400304167066,0.171400601863861,-0.268355623483658,-0.0765809834003449,0.327501990823202
1.15393304167083,-0.0130726200342178,1.05266487836838,1.32752435982227,1.69428308303731
1.16386304167099,-0.485916484594345,2.84724962174892,2.86640100717545,4.06929969066992
1.17379304167116,-1.39614845216274,3.62608588278294,3.2505841255188,5.0659674778732
1.18372304167133,-2.34702558517456,3.41693565666676,3.3682201641798,5.341243811478
1.1936530416715,-2.28717056214809,2.23086012125015,1.63029157832265,3.58688398074022
1.20358304167166,-1.40474268972874,0.552563633322716,-1.27069132402539,1.97314090580742
1.21351204166422,-0.221106027960777,-0.358433150053024,-2.49081914305687,2.52617145144111
1.22344204166438,0.817434316277504,-0.418779923915863,-1.97617894247174,2.17918762358173
1.23337204166455,1.16364035367966,-0.532732801437378,-1.41676748871803,1.90921272453528
1.24330204166472,1.26595317900181,-0.624529409408569,-1.09181622639298,1.78458317454133
1.25323204166489,1.37996920645237,-0.525408579111099,-0.794317495375872,1.67669599785427
1.26316204166505,1.23060734510422,-0.414199799895287,-0.668721642047167,1.46052885853036
1.27309204166522,0.788823890089989,0.0865370374917984,-0.766257876902819,1.10312416452101
1.28302204166539,0.0364158743619919,1.20667644560337,-0.539448328614235,1.32227026720116
1.29295204166556,-0.935342835187912,1.60182250857353,-0.0197238278388977,1.85501768123508
1.30288204166573,-1.58719335973263,1.24396413981915,0.42632626734674,2.06116074787124
1.31281204166589,-1.23225859880447,0.90775918006897,0.147046948671341,1.53756651512727
1.32274204166606,-0.414120862483978,0.491966013908386,-0.310160876512528,0.713951270679169
1.33267204166623,0.402490165829659,0.231111198663712,-0.420766223073006,0.626462236863872
1.3426020416664,0.976462794542313,-0.00383928179740906,-0.610491414070129,1.15160500861339
1.35253204166656,1.10795147180557,-0.545467452406883,-0.77027009010315,1.45547491122963
1.36246204166673,0.928677594065666,-0.783962514996529,-0.820864877700806,1.46658052833182
1.37239104167384,0.406325354576111,-0.862623937726021,-0.731651569604874,1.20188783628699
1.382321041674,-0.443393778204918,-0.984637786746025,0.349705595970154,1.13507868339238
1.39225104167417,-0.826454815864563,-0.832888507246971,1.56625506520271,1.95700939125058
1.40218104167434,-0.716958686113358,-0.441615639925003,1.40665648341179,1.63943178978089
1.41211104167451,-0.443945755362511,0.0511748313903809,0.869873754233122,0.97795043094006
1.42204104167467,-0.327200247645378,0.496430363059044,0.357740985900164,0.693888838661462
1.43197104167484,-0.40577805519104,0.763403120040894,0.162387265115976,0.879664582460065
1.44190104167501,-0.309780222773552,1.10422328710556,0.802310200631619,1.39963370645515
1.45183104167518,-0.0880479580163956,1.1124836486578,0.556118740439415,1.2468521824618
1.46176104167535,-0.155246499180794,0.793727365136147,-0.453519693911076,0.927245770245978
1.47169104167551,-0.286077949404717,0.936169631481171,-0.722986288368702,1.21694837409495
1.48162104167568,-0.505181306004524,0.753116698265076,-0.173091616630554,0.92322999349561
1.49155104167585,-0.437507386207581,1.32339856445789,-0.466923851072788,1.46997086913178
1.50148104167602,-0.21865896821022,1.55438170909882,-0.749055222272873,1.7392521289261
1.51141004166857,-0.112156028151512,1.60219673037529,-0.985992586612702,1.88462057675576
1.52134004166874,-0.418181753754616,1.39564325273037,-0.285032759606838,1.48456719016493
1.5312700416689,-0.703935767412186,0.829735103845596,0.156751572489738,1.09934387826278
1.54120004166907,-0.67543000638485,0.198947419524193,0.07129334628582,0.707720644382374
1.55113004166924,-0.776205013990402,-0.323935162425041,-0.325601618885994,0.901911651671248
1.56106004166941,-0.856380280852318,-0.102887606620789,-0.0977028805017471,0.868054662960339
1.57099004166957,-0.795739976763725,0.414170563817024,0.891323826313019,1.26459382012792
1.58092004166974,-0.800585564374924,0.8309413844347,1.69960725009441,2.05427983362181
1.59085004166991,-1.02601239234209,0.669416729807854,1.52603148400784,1.95693440809071
1.60078004167008,-0.987498537003994,-0.024161279797554,1.99534187614918,2.22646049386487
1.61071004167025,-1.0986467975378,-0.584539132118225,1.96195018172264,2.32335087713395
1.62064004167041,-0.886273586153984,-1.09289372205734,0.462712978720665,1.48121600649708
1.63057004167058,-0.732053565680981,-1.20236061573029,-0.11052640914917,1.41201613319571
1.64050004167075,-1.04518102705479,-1.13514921069145,-0.172893396019936,1.55269418632132
1.65043004167092,-1.04948048472404,-1.64171689152718,-0.473102896213532,2.00511096704095
1.66035904166347,-0.514716652929783,-2.26647024929523,-0.879857436418533,2.48514984098839
1.67028904166364,-0.404709768891335,-2.39545047104359,-0.371880576610565,2.45769569302614
1.6802190416638,-0.203246584832668,-2.7412197214365,-0.439773182272911,2.78370170587385
1.69014904166397,-0.0287326329946518,-2.50878062009811,0.315100604295731,2.5286546135853
1.70007904166414,-0.0776074621081352,-1.42389290571213,1.74767077803612,2.2556256501276
1.71000904166431,0.892735636532307,-0.381081755161285,0.473092955946922,1.07982274740725
1.71993904166447,0.860744204074144,0.874120148420334,-1.99050388991833,2.33817714352476
1.72986904166464,0.64765938654542,1.89900548994541,-1.22018000543118,2.34830231816034
1.73979904166481,0.253884934186935,1.72925029456615,-0.99270051240921,2.01002946456059
1.74972904166498,-0.229056633263826,0.305182557106018,-1.02054144501686,1.08954493959682
1.75965904166515,-0.87647131383419,-1.22308987230063,-1.47408306598663,2.10643577759379
1.76958904166531,-1.14492648616433,-1.66097235739231,-1.80646453142166,2.70795124291898
1.77951904166548,-1.01247199505568,-2.63193993866444,-1.45878090262413,3.17494080312844
1.78944904166565,-1.00512898854911,-2.96728652715683,-2.11003793478012,3.77721242506685
1.79937904166582,-1.51089801281691,-2.27054838985205,1.02536539793015,2.91368786850381
1.80930904166598,-1.91675354361534,-2.67911030441523,2.48139518558979,4.12418455421845
1.81923804167309,-1.75628811210394,-3.01680952012539,2.55196347713471,4.32414213481313
1.82916804167326,3.3282275480032,-4.08122203946114,3.78384960830212,6.48467345399279
1.83909804167342,4.89798421829939,-4.29666182309389,-1.20321255505085,6.62565262275154
1.84902804167359,2.71639390558004,-1.68624957829714,1.92502910792828,3.73201963512397
1.85895804167376,2.10436730504036,-0.743986563384533,3.85914595842361,4.45812575971527
1.86888804167393,1.50395999908447,-1.15480082541704,2.48587707638741,3.12650691093726
1.87881804167409,1.24014152258635,-1.14842560619116,2.17120975077152,2.75154214048116
1.88874804167426,1.08999584197998,-0.838726367354393,2.39142817139626,2.75871012499987
1.89867804167443,0.416670833230019,-0.626089154183865,3.05955442070961,3.15063096308263
1.9086080416746,-0.158434985876083,-0.728326258063316,3.23436511874199,3.31913821710831
1.91853804167476,-0.163278819322586,-0.663560158610344,2.46577844202518,2.55871752682677
1.92846804167493,0.0136286902427673,-0.227958087623119,1.31311097323895,1.33282071523182
1.9383980416751,-0.186056647896767,0.851056975722313,0.350601974129677,0.939061657409042
1.94832804167527,-1.29558803737164,1.44801150083542,0.142809471487999,1.94825055223367
1.95825804167544,-2.14688942670822,1.51112371534109,0.0608747774362564,2.62608736185713
1.96818704166799,-2.44089093804359,1.80146925508976,-0.630255587697029,3.09846125589466
1.97811704166816,-2.8792812538147,2.47474105417728,-1.127841360569,3.96063504483932
1.98804704166832,-3.67884881794453,2.9781541621685,-0.991688359379768,4.83598765931663
1.99797704166849,-4.54072372734547,3.3216640484333,-0.502625488042832,5.64838529138751
2.00790704166866,-4.98998986423016,3.57689501166344,0.211332699358463,6.14319446862954
2.01783704166883,-4.77405979156494,3.44459474086761,0.522491987943649,5.91015039569343
2.02776704166899,-4.04083999872208,3.19124131858349,0.260575025975704,5.1556094104256
2.03769704166916,-3.31032395839691,3.00346617400646,0.388388582020998,4.48663565030435
2.04762704166933,-2.60420601010323,2.75573484957218,0.648684549629688,3.8466550598062
2.05755779167521,-2.01824951291084,2.5215626335144,0.339969981908798,3.24764357645663
2.06748779167538,-1.79961919605732,2.30159505844116,-0.0771948679536581,2.92265771370805
2.07741779167554,-1.71313829183579,2.3823942232132,-0.606521154642105,2.9964166854398
2.08734779167571,-1.6327706515789,2.86897319734097,-1.32185314536095,3.55587442770676
2.09727779167588,-1.66981802523136,3.39571844995022,-1.9452926337719,4.25480427983792
2.10720679166843,-1.63422894716263,3.6940825688839,-2.6100497174263,4.80929410671808
2.1171367916686,-1.53076480507851,3.67826468110085,-3.25487715125084,5.14461827762136
2.12706679166877,-1.20461881041527,3.64684115946293,-3.42144853770733,5.14362391869184
2.13699679166893,-0.608919097781181,3.46847360014915,-3.1723384398222,4.73970703307154
2.1469267916691,0.135900401473045,3.19389186143875,-3.23973520159721,4.55140619129444
2.15685679166927,0.806360859274864,3.28565630972385,-3.56924276053906,4.91785004902133
2.16678679166944,1.09023382365704,3.64753113090992,-3.57034613013268,5.21923985175583
2.17671679166961,1.17001908123493,4.06184729039669,-3.36776291191578,5.40456983411559
2.18664679166977,1.14200214743614,4.36651704668999,-3.30478138267994,5.5939449417286
2.19657679166994,1.03596172213554,4.44685603559017,-3.36278693139553,5.67063323068591
2.20650679167011,1.11602647662163,4.39656471848488,-3.17869202435017,5.53889694849199
2.21643679167028,1.40345220923424,4.1857673317194,-2.99192786335945,5.33310028017854
2.22636679167044,1.54660754352808,3.72374081611633,-3.0966567581892,5.08404599087651
2.23629679167061,1.50593606561422,3.25550572693348,-3.04831607222557,4.70727010569853
2.24622679167078,1.77462234914303,2.97230811595917,-2.8873656141758,4.50785760735623
2.25615579166333,2.49737036347389,2.77412141919136,-2.75826318562031,4.64118779860526
2.2660857916635,3.02395891070366,2.32810984253883,-2.41277752518654,4.51507677881512
2.27601579166367,3.3137799552083,1.72766277551651,-2.02996923342347,4.25284979115083
2.28594579166384,3.35331999689341,1.43242165446281,-1.72804766848683,4.03518717562172
2.295875791664,3.15127998501062,1.58069359481335,-1.420402264148,3.80088152625273
2.30580579166417,3.09826328068972,1.81821977376938,-1.32167714416981,3.82779165781225
2.31573579166434,3.12479999184608,1.90793594241142,-1.24879174724221,3.8683427171551
2.32566579166451,3.39333541721106,2.04602963447571,-1.27304409742355,4.16192308828944
2.33559579166467,3.81761640161276,2.03925037264824,-1.44383892774582,4.5626097708968
2.34552579166484,4.03258489966393,1.83666773915291,-1.54414031088352,4.69248960113265
2.35545579166501,4.18713324129582,1.97571803569794,-1.34481282234192,4.82121022815659
2.36538579166518,4.55453221946955,2.14086445569992,-1.15991450786591,5.16453928452707
2.37531579166534,4.65908189713955,1.78059469521046,-1.37660296440125,5.17422432007575
2.38524579166551,4.3539806163311,1.44688942015171,-0.653856704235077,4.63445409851118
2.39517579166568,4.10503511756659,1.10262173473835,0.0801150496769697,4.2512946766317
2.40510479167278,3.94108708441258,0.653774258494377,0.854190498590469,4.0852453532041
2.41503479167295,4.15597927629948,0.306952509284019,0.820231039524078,4.24725352977489
2.42496479167312,4.31879733502865,-0.0568168097734451,0.602840953655541,4.36103838395487
2.43489479167329,4.28222475528717,-0.165309557318687,1.0174096032232,4.40453157614586
2.44482479167345,4.10415072619915,-0.118489147424698,1.30907230138779,4.30949685597741
2.45475479167362,3.70012800514698,-0.235771429538727,1.51646032288671,4.00576925600431
2.46468479167379,3.16596936017275,-0.460510917305946,1.78429422855377,3.6632141881906
2.47461479167396,2.74712160855532,-0.758806039094925,1.74947288990021,3.34411709269491
2.48454479167413,2.47251092612743,-1.10058865785599,1.68447041675448,3.18779645814186
2.49447479167429,2.34037306174636,-1.48947936952114,1.58387521103025,3.19445700307474
2.50440479167446,2.1454311311245,-1.54663064002991,2.17103959679604,3.42174721537605
2.51433479167463,2.29006917312741,-0.780988036394119,1.23444048732519,2.71628467717338
2.5242647916748,1.9966403965652,-0.667763137221336,0.711312322318554,2.22226139338061
2.53419479167496,0.712856718152762,-1.21976543784142,1.59747656553984,2.13258617678558
2.54412379166752,0.429149229973555,-1.36828413069248,1.04649518877268,1.77525285636051
2.55405379166768,0.322284054905176,-1.60784514069557,0.674509947001934,1.77313188373258
2.56398379166785,-0.0314080996066332,-2.0992433899641,0.47356862694025,2.15222594618942
2.57391379166802,-0.211936497464776,-2.47528776884079,0.157150060236454,2.48930969526951
2.58384379166819,-0.322925129011273,-2.64095225214958,0.110419112741947,2.66291228123264
2.59377379166835,-0.385961475893855,-2.44338477551937,0.218178034722805,2.48328352729798
2.60370379166852,-0.324627399668098,-2.05703818738461,0.216826158463955,2.0937532414227
2.61363379166869,-0.257088038921356,-1.82113870382309,-0.0318334114551544,1.83947106647638
2.62356379166886,-0.316774954497814,-1.69160007297993,-0.304298458099365,1.74769983987653
2.63349379166903,-0.245018545277417,-1.69558728933334,-0.421714933812618,1.76433948793287
2.64342379166919,-0.0757569645345211,-1.75876060724258,-0.477281608879566,1.82394509934879
2.65335379166936,0.104525411725044,-1.59492981076241,-0.228027377128601,1.61453496328666
2.66328379166953,0.270472900271416,-1.44408801913261,-0.0741567277908325,1.47106934474899
2.6732137916697,0.419088072180748,-1.44987793207169,0.0223568290472031,1.50939744863892
2.68314379166986,0.626746088862419,-1.36002435386181,0.136254742741585,1.50367624770798
2.69307279167697,0.97422681927681,-1.12240754306316,0.0581961679458618,1.48738138420745
2.70300279167714,1.41424353808165,-0.869290348291397,-0.134866029024124,1.66551473737791
2.7129327916773,1.86937150865793,-0.555317671895027,-0.4679415589571,2.00546674285567
2.72286279167747,2.2175743702054,-0.309206610918045,-0.547701088786125,2.30504258057955
2.73279279167764,2.28834000527859,-0.115896492004395,-0.142986642122269,2.29573020114358
2.74272279166325,2.02887419611216,-0.0550141131877899,0.530952908992767,2.09791993361698
2.75265279166342,1.75919768661261,-0.0330888086557388,0.944692533016205,1.997076701526
2.76258279166359,1.51805529713631,-0.171239218711853,0.955830309391022,1.80206169027011
2.77251279166376,1.4016828417778,-0.174910685420036,0.840892176032066,1.64390029762159
2.78244279166393,1.39808461144567,-0.0302558326721191,0.566470066308975,1.50878902839196
2.79237279166409,1.33347624063492,0.0655654138326645,0.507872194647789,1.42842286243439
2.80230279166426,1.13250729247928,0.0985676836967468,0.822288089990616,1.40301320689739
2.81223279166443,0.959977154731751,0.255466021299362,1.08841124653816,1.47358680342766
2.8221627916646,0.690210671201348,0.192972734570503,1.27296866834164,1.46084854708054
2.83209279166476,0.320629950687289,-0.201819571852684,1.27980055510998,1.33470002836605
2.84202279166493,-0.119455838352442,-0.492545472979546,0.841432458758354,0.982282710283174
2.85195179167204,-0.303757371380925,-0.139412239193916,0.46374325811863,0.571631107057509
2.8618817916722,-0.235238821282983,0.61521245598793,0.239727655649185,0.700922975742958
2.87181179167237,-0.180231505483389,1.21376911818981,0.182446576952934,1.24056665330079
2.88174179167254,-0.393513081818819,1.28583371222019,0.614703748226166,1.47854035424394
2.89167179167271,-0.717415646016598,1.08320488572121,1.35710016131401,1.8787599318269
2.90160179167287,-0.999990089982748,0.668972926139832,1.96521702110767,2.30425321872903
2.91153179167304,-1.18896347522736,0.121320953965187,2.51700706779957,2.78633764979206
2.92146179167321,-1.37152524232864,-0.412183679938316,2.31556931912899,2.72265277772316
2.93139179167338,-1.53347776696086,-0.325786390900612,1.95613571047783,2.5068222418165
2.94132179167355,-1.7578080958128,0.484383344650269,1.74908580422401,2.52662179140796
2.95125179167371,-1.66849713921547,1.25430143237114,0.919785733222961,2.28104374834395
2.96118179167388,-1.61027889803052,1.6481973606348,0.525026171207428,2.36330386313285
2.97111179167405,-1.59306586459279,1.79102554321289,1.1343341088295,2.65185693728486
2.98104179167422,-1.16008341930807,1.25383891761303,0.984274089932442,1.97147179923702
2.99097179167438,-0.796543164923787,0.450910958647728,0.34887821495533,0.979549751205029
3.00090079166694,-0.583824310004711,-0.246751331090927,-0.207610654234886,0.66696268868615
3.0108307916671,-0.634733604714274,-0.603796936869621,-0.331771600842476,0.936765651084781
3.02076079166727,-0.857421962320805,-0.308114351034164,0.108979235887527,0.917596506443814
3.03069079166744,-1.05455192103982,-0.505233346223831,0.207220060229301,1.18755237428365
3.04062079166761,-1.24142878711224,-1.10062783420086,0.294634764790535,1.68503314730358
3.05055079166777,-1.18410093069077,-0.91883380651474,-0.132504923343658,1.50462890201119
3.06048075000581,-0.9657607088238,-0.29816823720932,-0.359328358769417,1.07271380796757
3.07041075000598,-0.789244231805205,0.0480857473611832,-0.183032467961311,0.811615414383611
3.08034075000614,-0.677413089573383,-0.416602420806885,-0.238207379579544,0.830173973714948
3.09027075000631,-0.793973532915115,-1.39343768298626,-0.268878364562988,1.62614824732123
3.10020075000648,-1.0827843247354,-1.81595631659031,0.0629897153377533,2.11520375895451
3.11013075000665,-1.18490565374494,-1.79309662699699,0.286663255691528,2.16826491559228
3.12006075000681,-1.03508895210922,-1.51028200864792,0.283802797794342,1.85281000441493
3.12999075000698,-0.862147389650345,-1.24141709268093,0.516258271336556,1.59716533965795
3.13992075000715,-0.73661834076047,-0.85330230653286,0.198512386679649,1.14461284893376
3.1498497499997,-0.837673137634993,-1.5718040728569,0.164171689152718,1.78863542190242
3.15977974999987,-0.883308901637793,-1.8808919852972,-0.259304718375206,2.09409364953898
3.16970975000004,-0.967953341603279,-1.59084786951542,-0.46114884853363,1.91843396445293
3.17963975000021,-0.821888725161552,-1.84350313425064,-1.32442241191864,2.41414573042557
3.18956975000037,-0.662929682582617,-1.74009863376617,-1.86513490855694,2.6355544476261
3.19949975000054,-0.780137120336294,-1.25210170984268,-1.94357939958572,2.44005604460463
3.20942975000071,-0.582073068916798,-0.759964957237244,-1.89300273835659,2.1212767761922
3.21935975000088,-0.0182895058393478,-0.512907816767693,-1.98746216833591,2.05266042128057
3.22928975000104,0.467711471021175,-0.455994527935982,-2.01677075207233,2.11991728518986
3.23921975000121,0.789660334289074,-0.52122489631176,-2.00801162302494,2.21976339151
3.24914975000138,1.10739817902446,-0.698820623159409,-2.28993512570858,2.63789383224829
3.25907975000155,1.1547207185626,-0.935305997729302,-2.34579650044441,2.77685766087558
3.26900975000171,1.11091703340411,-1.0908384257555,-2.16891296446323,2.66987800725592
3.27893975000188,1.02119399428368,-1.22089862823486,-1.94480673015118,2.51310641478393
3.28886975000205,0.992510039359331,-1.08566071629524,-1.70790912687778,2.25403836586874
3.29879975000222,1.19568821176887,-0.671483720541,-1.80593068063259,2.26758600938635
3.30872975000239,1.40756601780653,-0.276407239437103,-1.74587568283081,2.25958512926531
3.31865875000949,1.65705486908555,-0.000199390053749084,-1.60646578252316,2.30793483212466
3.32858875000966,1.95460695594549,0.314909400343895,-1.41917654156685,2.43592248209772
3.33851875000983,1.96498751789331,0.592108937501907,-1.03020279943943,2.29632026235867
3.34844875000999,1.69802733242512,0.604981582760811,-0.499672059416771,1.87055384956016
3.35837875001016,1.47640850365162,0.544241876006126,-0.542336853146553,1.66436490936765
3.36830875001033,1.29187008529902,0.692895639538765,-0.863755958676338,1.70150140779583
3.3782387500105,1.03791103765368,0.799889160990715,-0.919232586622238,1.60064691305172
3.38816875001066,0.733965605199337,0.645888703465462,-0.822655879855156,1.2777481847141
3.39809875001083,0.353501023650169,0.288441393971443,-0.8814496332407,0.992529529746129
3.408028750011,-0.0116600789129734,0.0561888188123703,-1.41460343420506,1.41576693592714
3.41795874999661,-0.312156823575497,0.206803153753281,-2.1459930485487,2.17841584444439
3.42788874999678,-0.526425409913063,0.678188138008118,-2.55028240263462,2.69091122037218
3.43781874999695,-0.896807929873467,0.952057101130486,-2.64790634572506,2.95331766029798
3.44774874999712,-1.07739319190383,0.890482996702194,-2.33374831259251,2.72031565152002
3.45767874999729,-0.927559314072132,0.519662520289421,-1.76429499685764,2.05989132044689
3.46760874999745,-0.634217807203531,-0.165527073740959,-1.16054015994072,1.33284841671907
3.47753775000456,-0.0764462050795555,-0.982284867167473,-0.666229412555695,1.18936504601892
3.48746775000473,0.553230873718858,-1.59122384548187,-0.450872951745987,1.74394499474094
3.49739775000489,0.939777655899525,-1.87437526345253,-0.354376351833344,2.12651058532739
3.50732775000506,1.20728528693318,-1.73234464108944,-0.366443250775337,2.14309037970764
3.51725775000523,1.44244582861662,-1.30742631018162,-0.266174027323723,1.96490766649996
3.5271877500054,1.52272371411324,-0.772959224581719,-0.16505461871624,1.71563297343818
3.53711775000556,1.32107955873013,-0.201249468326569,0.461522485613823,1.41377351571016
3.54704775000573,1.10780083291233,0.0847676700353622,0.94227353990078,1.45680735421044
3.5569777500059,1.00866808891296,-0.0210207402706146,0.874904844760895,1.33540693142538
3.56690775000607,0.882541308403015,-0.0431682389974594,1.33395688176155,1.60005738031323
3.57683775000623,0.478366267383099,-0.429663931131363,1.59805865585804,1.72256693543331
3.5867677500064,-0.359414897561073,-0.674500883817673,1.7291888988018,1.89056202188636
3.59669775000657,-1.03888196781278,-0.648770796060562,0.662836273312569,1.39267053321541
3.60662775000674,-1.51541776433587,-0.541079701781273,-0.3908752566576,1.65591114206397
3.61655775000691,-1.87704305559397,-0.0762202101945877,-0.173717853426933,1.88660489917601
3.62648775000707,-1.40775269016624,1.24421907842159,-0.0429144698381424,1.87927922446347
3.63641775000724,-0.316358413472772,2.6004696393013,0.306876495480537,2.63755534049643
3.64634674999979,0.868914299234748,0.774926227927208,-1.26366808712482,1.71824903682843
3.65627674999996,1.79796648055315,-0.273496495485306,-1.846387565732,2.59164635726504
3.66620675000013,1.70773517221212,0.0491721600294113,-0.367498088479042,1.74752172082869
3.6761367500003,1.44144230023026,0.563116688132286,-0.0226784259080887,1.54769849142133
3.68606675000046,1.37033577248454,0.16608548283577,-0.433930644392967,1.4469624463347
3.69599675000063,1.08517875954509,-0.886513906717301,-1.25743729412556,1.88272897561725
3.7059267500008,0.740335708111525,-0.939551661014557,-1.78467195868492,2.14846649602373
3.71585675000097,0.534055441617966,0.0203091341257095,-1.17407295584679,1.28999030279359
3.72578675000113,1.0152611900121,1.47733119428158,-2.13003014981747,2.78393447851663
3.7357167500013,1.45650955170393,2.19099672853947,-1.5944251960516,3.07637423674032
3.74564675000147,1.67895722329617,2.16431763768196,-0.283522131443024,2.75382515666075
3.75557675000164,2.54443928003311,2.01726718068123,0.0113430136442184,3.24710129068798
3.76550675000181,3.02934068799019,2.06728660225868,0.349665834903717,3.68413423966745
3.77543675000197,2.81713792294264,1.5213262295723,0.714987589716911,3.28053453374834
3.78536675000214,2.32045642197132,0.570439741015434,0.621145625710487,2.46895552668269
3.79529575000925,1.51734047502279,-0.637833579182625,0.415948702096939,1.6976946470586
3.80522575000941,0.586468274742365,-1.72880005896091,0.162465471625328,1.83278195937569
3.81515575000958,-0.0220836909860373,-2.41062107205391,-0.357337966561317,2.43706217909681
3.82508575000975,-0.26277847610414,-2.51566630125046,-0.6267952054739,2.60585910907628
3.83501575000992,-0.540161835104227,-2.19001556575298,-0.314898875355721,2.27752152306928
3.84494575001008,-1.06863347813487,-2.06027696013451,0.72339062333107,2.43105175941917
3.85487575001025,-1.28567422941327,-1.89575092971325,0.636064211726189,2.37726891476857
3.86480575001042,-1.46878081083298,-1.50308934867382,-0.124284322857857,2.10524137648777
3.87473575001059,-1.29538046121597,-0.842803630828858,-1.08411412775517,1.88775844361421
3.88466575001075,-0.923669892400503,-0.257154697179794,-1.89378041803837,2.1226631574874
3.89459575001092,-0.419004603177309,0.0511379939317703,-1.46826450169086,1.52773708432854
3.90452574999654,-0.231879376620054,-0.29396993637085,0.215612568855286,0.432059195759055
3.91445574999671,0.529812263399363,-0.953077440261841,-0.420952164530754,1.16887055160422
3.92438574999687,0.0456549136340618,-1.04970150947571,-1.86448937594891,2.14015846683391
3.93431574999704,-1.81016684219241,-1.47622840940952,-1.83191044449806,2.96847607199076
3.94424574999721,-2.31093934759498,-0.454735037684441,-1.49179077386856,2.78794984455602
3.95417574999738,-1.2424304151535,0.899304690957069,-0.736982476115227,1.70162435154673
3.96410475000448,-0.0237988986074924,0.643384925723076,-0.164821899533272,0.664587698342644
3.97403475000465,0.843167620003223,-0.483020943403244,-0.465438365936279,1.07743850853471
3.98396475000482,1.36521726608276,-1.50587145388126,-1.34940990328789,2.4397487793452
3.99389475000498,1.34975445047021,-1.52501933097839,-2.08093809664249,2.91167037943515
4.00382475000515,1.7216733263433,-0.849197561144829,-2.89335608661175,3.47229102818724
4.01375475000532,2.07061030581594,-0.599334341883659,-3.43411536097527,4.0545994875448
4.02368475000549,0.287806240171194,1.84142211019993,1.1588041216135,2.19465141015221
4.03361475000565,0.0890421308577061,2.03728336930275,0.466414266228676,2.09188773495302
4.04354475000582,0.133100316077471,0.998172336816788,0.0183216655254364,1.00717396290504
4.05347475000599,-0.315473510473967,0.673314483761788,1.61356781065464,1.77664768860767
4.06340454166639,-0.08018579185009,0.424693213105202,0.752106884121895,0.867443860786271
4.07333454166655,-0.0317668993771076,-0.297953059673309,0.0164067023992538,0.300090555580044
4.08326454166672,-0.468328059911728,-0.516907896995545,0.348864181637764,0.779891763584426
4.09319454166689,-1.09409181654453,-0.130820925235748,0.895516279935837,1.41989451197593
4.10312454166706,-1.42557500347495,0.292230389714241,0.785493316054344,1.65368148105105
4.11305454166723,-0.526118284910917,1.58304066717625,-1.72339021503925,2.39851871723872
4.12298354167433,-0.927733707278967,2.09292254984379,-0.865280912518501,2.44739160921072
4.1329135416745,-0.513428803682327,2.47529829382896,-0.777911816239357,2.64496835023183
4.14284354167467,-0.0827497959136963,3.15291808247566,-1.4242484164238,3.4606680735389
4.15277354167483,-0.0835333228111267,3.18183548748493,-1.2462328594923,3.41820877441924
4.162703541675,-0.269264426976442,2.67959883928299,-1.77636949717999,3.22618069265086
4.17263354167517,-0.754252227544785,1.88885823190212,-2.18007412970066,2.9815105322589
4.18256354167534,-1.36282224655151,0.0503515434265137,-1.67525125801563,2.16015891339135
4.1924935416755,-1.38027735471725,-1.47359365403652,-1.43659130394459,2.47799080057436
4.20242354167567,-2.00423695296049,-2.23208803653717,-0.0180830991268158,2.99991829304379
4.21235354167584,-1.9086026711762,-1.61642885327339,0.00543323278427124,2.50112692883311
4.22228354167601,-1.68243485480547,-1.00040948152542,-0.60056254953146,2.04745733711108
4.23221354167617,-1.25054138034582,-0.0187397414445877,-1.37049145460129,1.85538452860904
4.24214354167634,-0.282591473981738,1.30146916687489,-2.46123310893774,2.79845463604907
4.25207354167651,1.2365013384819,1.80186043381691,-2.17868453890085,3.08582288912828
4.26200354167668,1.56920337751508,1.09855733513832,-1.02561098098755,2.17281047100597
4.27193354167684,2.31020069807768,-0.727984195947647,-0.669542152583599,2.51302108010148
4.2818625416694,3.02379226505756,-2.83284383654594,-0.829034607410431,4.22559134852892
4.29179254166957,3.27396012425423,-4.91767267048359,-0.637650707513094,5.94213074696442
4.30172254166973,3.44328671872616,-6.01660832047463,1.36233926653862,7.0648260690914
4.3116525416699,3.75063040673733,-5.63196444153786,1.57227652788162,6.94681980468883
4.32158254167007,4.77218517422676,-3.34509501099587,1.86919930815697,6.12023839595433
4.33151254167024,5.01452068805695,-1.29300181388855,1.08575544118881,5.29113752417581
4.3414425416704,4.23199103325605,-0.0685702979564667,-0.173690225332975,4.2361088614078
4.35137254167057,2.52780658274889,0.763484396338463,-1.34152902603149,2.96182623915144
4.36130254167074,1.17863195680082,1.45520474553108,-2.35523843809962,3.0089769426352
4.37123254167091,-0.0379585891216993,1.73711772322655,-1.36376832604408,2.20881934208232
4.38116254167107,-0.741120404452086,1.52840428411961,1.56456755876541,2.3093615471709
4.39109254167124,-1.12263229541481,0.565398856401444,1.92245560213923,2.29691416464023
4.40102254167141,-1.22577498681843,0.535380420684815,2.20311727568507,2.57737894838621
4.41095254167158,-1.11269429460168,1.44389856934547,3.20528223752976,3.68737927178922
4.42088254167174,-0.76634719312191,1.60932039320469,1.65188505336642,2.43021076821039
4.43081254167191,-0.823923044577241,1.02644537866116,-2.04427795484662,2.43136004232861
4.44074254167208,-1.05394030228257,0.100273316502571,-1.77554942518473,2.06722535299171
4.45067154166463,-0.498195491284132,-2.89297484815121,0.682817671000958,3.01392471561625
4.4606015416648,-0.939689655303955,-0.760675393939018,6.78014651119709,6.88709157892703
4.47053154166497,-1.10211068809032,-3.25885325789452,-0.927316654622555,3.56296066540637
4.48046154166514,0.783627323359251,-1.70047790050507,-6.70265628576279,6.95925988572756
4.4903915416653,0.982261332124472,0.524201129078865,-4.94708007216454,5.07082097778279
4.50032154166547,1.63728704094887,0.624548120498657,-4.60966415405273,4.93150816915436
4.51025154166564,2.15508093729615,-0.618416145443916,-4.26599902421236,4.81929040936773
4.52018154166581,2.40541778102517,-2.21742029607296,-2.14063787609339,3.909644227711
4.53011154166597,2.90338172256947,-3.34059616327286,-0.0880780711770058,4.42684604426741
4.54004154166614,3.04752202033997,-3.68369732916355,2.16736199051142,5.24923560866316
4.54997154166631,2.01138868242502,-4.1983119481802,3.23176661610603,5.66708241575835
4.55990154166648,0.872648331150413,-4.39550520300865,1.64065416008234,4.77218264241125
4.56983154166665,-0.720434855818749,-3.45372458338738,0.195009319782257,3.53344994505014
4.57976154166681,-1.41884383499622,-4.56672278702259,1.55861392378807,5.02964732412166
4.58969154166698,-1.02363696098328,-6.11503333210945,0.434255164861679,6.215307138743
4.59962154166715,-0.456025591269136,-5.40944455683231,-0.837455767393112,5.49284825165188
4.60955054167425,-0.216147442907095,-4.40906665027142,1.82575040280819,4.77702344320866
4.61948054167442,-1.7520287078619,-3.37233777344227,3.00440231323242,4.84445042405371
4.62941054167459,-1.26636292263865,-0.0994775104522705,2.5893131518364,2.8841139757632
4.63934054167476,-2.1268295301497,0.613670545220375,0.554800047129393,2.28206013958498
4.64927054167492,0.257321781367064,-0.291814067959786,-1.98353941753507,2.02133583808839
4.65920054167509,1.66211314916611,4.81551070332527,-4.751759095788,6.96641787139382
4.66913054167526,-0.465341302156448,6.8445015513897,-3.23401077747345,7.58436350152622
4.67906054167543,-0.709143882393837,8.14635137200356,1.28265004947782,8.27714424614591
4.68899054167559,2.14558345109224,8.71174438118935,-3.7670569896698,9.73081378262914
4.69892054167576,3.37574465364218,5.06324319720268,-5.3625674289465,8.11105499122098
4.70885054167593,3.41435147970915,-0.0969380646944046,-2.31126445278525,4.12421342635023
4.7187805416761,3.4487927493453,-3.15893837571144,-1.19450546622276,4.82699765882637
4.72871054167626,3.28340016156435,-2.81085713624954,-0.678824899792671,4.37520716148896
4.73864054167643,2.45032892882824,-1.5790674841404,0.979781527966261,3.07531101215242
4.7485705416766,1.73777509644628,1.66015667080879,2.40684011623263,3.40130295659862
4.75849954166915,1.78789611339569,4.27832641661167,1.66796475023031,4.92775363095433
4.76842954166932,1.77192225113511,3.42650813341141,1.97519953384995,4.3338296748861
4.77835954166949,1.39017537519336,1.53634246408939,0.659020965099335,2.17422270552
4.78828954166966,0.762711979150772,-0.245157380104065,-0.409647596329451,0.899801565534353
4.79821954166982,0.284067676663399,-1.88486224472523,-1.28128340899944,2.29675582086838
4.80814954166999,0.204202458411455,-2.93046661019325,-2.52812847197056,3.87566339718338
4.81807954167016,0.6734808370471,-3.15980200946331,-3.50594080388546,4.76755137331808
4.82800954167033,1.63482083156705,-2.56815149366856,-4.08404156684876,5.09386265671799
4.83793954167049,2.26429435417056,-0.585394579768181,-2.29173855319619,3.27441312795994
4.84786954167066,3.78191417992115,1.52782657921314,-0.78573027446866,4.15385375099502
4.85779954167083,4.40194766521454,1.03818424880505,-1.11586830943823,4.65834003329117
4.867729541671,3.29286972731352,0.612635588049889,-2.29628578662872,4.06094100162464
4.87765954167116,2.4445771689713,1.38893766582012,-2.17584323063493,3.55519326322627
4.88758954167133,1.28918124318123,1.05092357754707,-2.03073916554451,2.62494384741675
4.8975195416715,-0.0905648919939995,0.423443078398705,-1.4001821538806,1.46561117092883
4.90744954167167,0.158981335088611,0.789475854635239,-0.231548862755299,0.837951111820892
4.91737954167184,1.42434314131737,0.970841866135597,-0.290746074020863,1.74809055624073
4.92730854166439,1.98887924104929,0.854605066180229,0.471909479498863,2.21555614044388
4.93723854166456,1.11240719631314,1.90998656094074,2.53952878832817,3.36670534798207
4.94716854166472,-0.230658185631037,3.32762236118317,1.59266986191273,3.69633210984754
4.95709854166489,-1.37177784204483,3.02758886218071,0.624470060169697,3.3820159110173
4.96702854166506,-1.37436318844557,2.2127659124136,0.321390161812305,2.62459497694475
4.97695854166523,-0.806654828041792,1.02352586388588,0.0936066135764122,1.3065448341912
4.98688854166539,0.186133538782597,0.452107883691788,-0.104655512273312,0.500000009005189
4.99681854166556,1.16437469087541,1.02019295096397,-0.641756183803082,1.67583205524816
5.00674854166573,1.18097778663039,2.17881522417069,-0.274453099966049,2.49344517037639
5.0166785416659,1.45911740988493,2.58750051498413,0.0968646821379662,2.97213144014832
5.02660854166606,2.07898381099105,2.83728596627712,1.13628181636333,3.6964174151459
5.03653854166623,1.17181125283241,2.77276252627373,2.42456843554974,3.86521483724212
5.0464685416664,0.0148615025728941,0.634269701242447,2.25687701493502,2.34435764735565
5.05640225000388,-1.66014205276966,-2.39850154817104,3.35596410781145,4.44650159168665
5.06633225000405,-2.68151204824448,-4.10164519429207,4.15989164829254,6.42796225022157
5.07626124999661,-1.51452737957239,-4.59404682576656,2.47490302205086,5.43361798338517
5.08619124999677,0.0243842048943043,-3.97003664910793,0.686783545017243,4.02907647264419
5.09612124999694,0.708473279848695,-2.37450574457645,0.217018531858921,2.48743019247905
5.10605124999711,0.827674764320254,0.619960979819298,0.254654720127583,1.06500993350971
5.11598124999728,1.07518221348524,2.91403359532356,-0.0377636575698853,3.10628953587756
5.12591124999744,1.48113568514586,2.97609594225884,-1.039944845438,3.48315880443242
5.13584124999761,2.52496659010649,1.53709675490856,-2.66070122301579,3.97711625593999
5.14577124999778,1.41433460846543,0.723182462453842,-1.1596168845892,1.96673500444982
5.15570124999795,1.34368401736021,3.53318999826908,0.628475110530853,3.83195762854115
5.16563124999811,0.900210643932223,3.49811255156994,2.46574949830771,4.37345300824243
5.17556124999828,0.764260760396719,2.18853154242039,2.57867706656456,3.46746885143575
5.18549124999845,1.26434811830521,0.543916770815849,2.40577489972115,2.77167358936166
5.19542124999862,0.929295790940523,-0.564579661488533,2.01157140791416,2.28664828742071
5.20535124999879,-0.045791007578373,-1.58335817098618,2.52254555046558,2.9786500244536
5.21528124999895,-0.68781309351325,-2.8650070309639,1.96628413796425,3.54226275850489
5.22521025000606,-0.644415789842606,-2.34307754516602,-1.19926217615604,2.70989185393407
5.23514025000623,-1.3854670509696,-2.54502634048462,-4.14479092150927,5.05726900669804
5.24507025000639,-3.21359113097191,-3.68789796888828,-6.56585015058518,8.18768267496555
5.25500025000656,-4.073256085217,-2.54461586594582,-7.56870552241802,8.96391590355809
5.26493025000673,-4.17204128533602,-1.34387785255909,-8.34641151666641,9.42732843252471
5.2748602500069,-3.42914318114519,-1.38658942401409,-6.8634395134449,7.79669514232146
5.28479025000706,-1.88198161393404,-1.94368757307529,-4.16328361809254,4.96514920839151
5.29472025000723,-0.871419758051634,-3.0250669580698,-1.28212131500244,3.39915247700247
5.3046502500074,-0.814249922633171,-3.48757645368576,1.60422922253609,3.92425073807093
5.31458025000757,-1.30769338175654,-2.6961189776659,2.70252518713474,4.03519044278182
5.32451025000773,-1.2504424162209,0.145385754704475,2.36288995832205,2.67731062992222
5.3344402500079,-0.297106967568398,2.29656294465065,0.0874860405921936,2.31735360189563
5.34437025000807,-1.33068141773343,2.99643197357655,-0.565171984434128,3.32697114200922
5.35430025000824,-2.0108523465693,0.669726632237434,0.137083293199539,2.12387682102936
5.3642302500084,-2.02033755362034,-1.73990275204182,-0.0616939723491669,2.66698923195343
5.37416025000857,-1.35106042608619,-2.85639057397842,-1.02724761664867,3.32258469447498
5.38409025000874,-0.320725479573011,-3.3884655636549,-2.2789061075449,4.09609286470997
5.39401925000129,-0.253248903304338,-4.04891851186752,-2.60719218313694,4.82237775403159
5.40394925000146,-0.621197519749403,-5.00592235744,-1.6504233956337,5.30745159112313
5.41387925000163,-0.554206408560276,-2.94927184045315,0.331880943775177,3.01918765448925
5.4238092500018,1.12447190254927,2.54887146949768,1.34411905020475,3.0931923394392
5.43373925000196,1.62928936555982,2.18716153979301,-1.24906758964062,2.99973820213809
5.44366925000213,1.83173195824027,3.5336490046978,-1.45686360061169,4.23843943050125
5.4535992500023,1.43221144706011,3.64094014942646,-1.80693815588951,4.30960558520208
5.46352925000247,0.293437547385693,2.73281434893608,-2.07795309305191,3.44561589804939
5.47345925000263,0.214811061769724,1.22618568062782,-1.07179550617933,1.64268704344484
5.4833892500028,0.744836456179619,-0.440213477611542,-1.25405351042748,1.5235548757234
5.49331925000297,0.764396050348878,-1.07366106033325,-2.28788421481848,2.64035292615977
5.50324925000314,1.12174841567874,-0.819555101394653,-2.58568320035934,2.93525938971674
5.5131792500033,2.07234064310789,0.107682323455811,-1.87244480520487,2.79503859944731
5.52310925000347,2.45241813898087,1.71741786897182,-0.994912514090538,3.15495321292726
5.53303825001058,1.17209593914449,2.71450262367725,-0.761141709387302,3.05314101971703
5.54296825001075,-0.716155790314078,3.5026979380846,-0.651275450885296,3.63399665305134
5.55289825001091,-1.08486885711551,3.11986728072166,-0.00560747981071472,3.30311121978757
5.56282824999653,-0.242186263650656,1.78316922426224,0.541689566373825,1.87930153380859
5.5727582499967,0.295125346183777,0.946176556348801,0.487262513637543,1.10443370237445
5.58268824999686,0.379483199492097,0.167411046624184,0.698168950974941,0.812079947624625
5.59261824999703,0.862828005552292,1.27785752534866,2.40506914079189,2.85687759525063
5.6025482499972,1.27898720741272,3.03578958213329,4.00005040705204,5.18191373168944
5.61247824999737,-0.677225101590157,2.05931684732437,2.66916740655899,3.43858609898526
5.62240824999753,-1.70043989360333,3.93789508938789,0.477507896125317,4.31584607668589
5.6323382499977,-0.245015365853906,4.48230653464794,0.875743627846241,4.57362343244013
5.64226824999787,-0.292541315406561,3.99437393009663,1.11766720533371,4.15809854338901
5.65219824999804,-1.08840430296958,4.48813679337502,0.458478132784367,4.64092641624608
5.6621282499982,-1.2246045204252,4.12099012255669,-0.376337616741657,4.31553540402931
5.67205824999837,-1.06590597130358,2.68906489670277,0.0729099552333355,2.89353441657635
5.68198824999854,-1.09524744562805,1.77092749357224,1.32248932242394,2.4667243791251
5.69191824999871,-0.723276310265064,1.91872873306274,1.15610387742519,2.35398061747942
5.70184725000581,-0.359132915586233,0.819583168029785,1.60376363798976,1.83650505768793
5.71177725000598,0.0755545046925545,-0.796373814940453,1.48345644503832,1.68539691486245
5.72170725000615,0.498026360571384,-1.23170896053314,0.645183529257774,1.47695599315184
5.73163725000632,0.243302058577538,-1.64590525209904,1.27047600030899,2.09339658401278
5.74156725000648,-0.844560426771641,-1.30521898627281,1.4057881718874,2.09597693231921
5.75149725000665,-1.92281389027834,-0.519846707582474,0.596766829490662,2.07932308812556
5.76142725000682,-2.45006054162979,-2.04244295239449,1.02239954397082,3.34957768964222
5.77135725000699,-2.4440336702764,-2.16195945560932,1.68536504074931,3.67257737695521
5.78128725000715,-2.07448540180922,-0.994496777057648,1.55326839923859,2.77581631992659
5.79121725000732,-1.19720117881894,-0.450816818475723,-0.20116161391139,1.29498743673345
5.80114725000749,-0.171295936703682,-0.578710042834282,-1.09692596197128,1.25199607733214
5.81107725000766,1.06306926771998,-1.40456376492977,-0.265471045821905,1.78140127817799
5.82100725000782,1.45349984362721,-2.25265912592411,-1.51289849147201,3.07831070207862
5.83093725000799,0.741604846268892,-2.07722336053848,-0.757046465724707,2.33194210666615
5.84086725000816,-0.0975828664004803,-1.11061721742153,-0.00747339941561222,1.11492101565398
5.85079725000833,-0.322492946684361,-0.130992833375931,0.640059614181519,0.728585707218588
5.8607272500085,0.194989877790213,-0.302111599445343,1.46758505523205,1.51099251000808
5.87065625000105,0.293221346586943,-1.38471597611904,0.480459278225899,1.49474352671183
5.88058625000122,-0.738879020512104,-1.78638577759266,-0.298392770290375,1.95605587821509
5.89051625000138,-0.947460604906082,-2.75455663561821,-1.0769647371769,3.10565885148382
5.90044625000155,-0.545968704968691,-3.62495444655418,-1.38715368032455,3.9195116914274
5.91037625000172,0.95336936250329,-3.54001837670803,-1.74290178894997,4.0593533838181
5.92030625000189,1.67594956174493,-1.79988232076168,-2.63408118903637,3.60371572304736
5.93023625000205,2.08438853859901,1.36021263420582,-2.33622870147228,3.41362249460583
5.94016625000222,1.80827877625823,2.11461747407913,-2.70783387422562,3.88250479519993
5.95009625000239,-0.211521710604429,0.555141085982323,-2.28982695221901,2.36563533337479
5.96002625000256,-0.404929478019476,-1.51243553817272,-0.885887743011117,1.79895142583514
5.96995625000272,0.400075192674995,-2.93571331679821,-0.228218069449067,2.97162519935529
5.97988625000289,0.914166412800551,-3.50881938815117,-0.20227156162262,3.63158746467704
5.98981625000306,0.900096477046609,-2.76426944553852,-0.496013529673219,2.94913354345788
5.99974625000323,0.670634558647871,-2.13412437021732,-1.33156537055969,2.60332554147231
6.0096762500034,0.9542575545609,-2.63427531659603,-1.72771773934364,3.29165953751392
6.01960625000356,1.03766823202372,-1.89871429860592,-1.33524853169918,2.54258922928707
6.02953525001067,1.12183254249394,-0.725426039099693,-3.22400911509991,3.48984039260388
6.03946525001084,0.919002279415727,-0.145406219959259,-4.31125851988792,4.4105167705928
6.049395250011,0.115276760235429,0.377185170650482,-3.16885116040707,3.19330159258756
6.05932187500002,-0.616285346969962,0.559340556263924,-1.70454595461488,1.89687806623554
6.06925187500019,-1.22519713573158,0.0838274377584457,-0.3886039057374,1.28807921195879
6.07918187500036,-1.75789346516132,-0.135503375530243,1.16531148791313,2.11340991374113
6.08911187500053,-1.80410050213337,-0.301644991636276,1.98405353397131,2.69856197787658
6.09904187500069,-1.14596487857401,-0.0967059302330017,1.79336530655623,2.13043344477759
6.10897187500086,-0.688808362707496,0.75655427634716,0.725418730080128,1.25421834923032
6.11890187500103,-0.648929474875331,1.65254535019398,0.285388855040073,1.79818308199994
6.1288318750012,-0.402213080897927,1.81429687678814,-0.255135945975781,1.87577793741625
6.13876187500136,-0.491451824381948,1.33689159929752,-0.169349983334541,1.43439306356941
6.14869187500153,-0.585740296393633,0.524443203806877,-0.684563064873219,1.04247731803965
6.1586218750017,-0.240529966726899,0.290423015356064,-0.875090786218643,0.952881984753052
6.16855187500187,0.300836906433106,0.871459080576897,-0.909805705547333,1.29525680667528
6.17848087500897,0.314545813165605,1.88311041891575,-0.267187642157078,1.92780526883047
6.18841087500914,-0.424393141306937,2.9099428832531,0.570038914382458,2.99546682273299
6.19834087500931,-1.21527784600854,4.67864200294018,1.17482227653265,4.97461542394109
6.20827087500948,-1.59492951840162,5.61403980195522,1.27641911029816,5.9741517231939
6.21820087500964,-2.09202573314309,5.21107835054398,1.72002338826656,5.87285192217759
6.22813087500981,-2.67309293478727,4.51675189733505,1.88736134469509,5.57750897673313
6.23806087500998,-2.43340153187513,4.23671529114246,2.16396008044481,5.34358706332098
6.24799087501015,-1.98232831299305,3.37024856328964,2.4183657091856,4.59746600011512
6.25792087501031,-1.73118279933929,2.84181580424309,2.13389486700296,3.95302646758096
6.26785087501048,-1.39582860946655,2.65216019511223,1.93823153614998,3.56917815403902
6.27778087501065,-0.885743462964893,2.1281789213419,1.70614034414291,2.8678566695951
6.28771087501082,-0.117118925526738,1.82732096493244,1.1741635876894,2.17519628591394
6.29764087501098,0.533569537997246,1.53215351879597,1.13247557133436,1.97855800438262
6.3075708749966,0.283130148723722,0.836542432308197,1.09332743927836,1.4054646248296
6.31750087499677,-0.323838244825602,-0.194579549431801,1.06084688723087,1.12611212941529
6.32743087499694,-0.557616431638598,-1.03745860934258,0.861949022859335,1.45952477503486
6.3373608749971,-1.04241039700806,-0.947564100623131,0.440204706788063,1.4758988259561
6.34729087499727,-1.78707121744752,-0.956125593781471,0.464353122711182,2.07928437446275
6.35721987500438,-2.64869688928127,-0.594499863982201,1.07783714175224,2.92074617241961
6.36714987500454,-1.76000942632556,-1.24452254891396,0.650777487382293,2.25166180710908
6.37707987500471,-0.701639712005854,-2.07116739928722,-0.493553021326661,2.24179108442213
6.38700987500488,-0.843063101023436,-2.21249694049358,0.12118697963655,2.37077716962901
6.39693987500505,0.202443615943193,-2.48061750590801,-1.45149103268981,2.88119295539753
6.40686987500521,1.68400395512581,-2.70864897608757,-1.30781339585781,3.44717630458971
6.41679987500538,0.875587653368712,-1.7003966242075,-1.68216383635998,2.54709198709142
6.42672987500555,1.49068184942007,-1.93810874462128,-2.23657402038574,3.3137080786986
6.43665987500572,1.14253672912717,-2.12817482829094,-2.78616200566292,3.68744044005804
6.44658987500588,0.411767650544643,-1.64172975540161,-2.35528243839741,2.90037662251462
6.45651987500605,-1.27766807556152,-0.355615961551666,-1.59812648355961,2.07675388066906
6.46644987500622,-2.76332395076752,1.11588848233223,-1.84671091675758,3.50592463865936
6.47637987500639,-3.0581531354785,1.47880059957504,-2.44725212395191,4.18666869617451
6.48630987500656,-2.31529508471489,0.408758381009102,-2.05376783967018,3.12180029512037
6.49623987500672,-1.03340860851109,-0.387973868250847,-1.34884740114212,1.74294187687318
6.50616987500689,-1.11546360902488,-0.328928684592247,-1.28402516841888,1.73238961430146
6.51609987500706,-1.66326271176338,-0.601786079406738,-1.17295496821404,2.12236016999194
6.52602887499961,-1.71516522914171,-1.1378050160408,-0.949739776477218,2.26680340144604
6.53595887499978,-1.0722335357219,-1.77853589057922,-1.09874919690192,2.34949451305972
6.54588887499995,-0.574849126338959,-1.90129467487335,-1.18938798308373,2.31517099434543
6.55581887500011,-0.543858006298542,-2.10547359824181,-1.17817360818386,2.47323546289659
6.56574887500028,-0.996899982690811,-2.02189525187016,-1.16831279061735,2.53905981846512
6.57567887500045,-1.43425329476595,-1.83382540762424,-1.24021899819374,2.63782889943148
6.58560887500062,-1.26184580236673,-2.16253774523735,-1.5650809442997,2.95267720733859
6.59553887500078,-0.320749526247382,-2.47680395185947,-2.72110822319984,3.69348995353994
6.60546887500095,0.651908850520849,-2.60013868689537,-3.53367707133293,4.43537822343726
6.61539887500112,1.3382347047329,-2.02997201085091,-4.5930855435133,5.19693114249366
6.62532887500129,1.69882138431072,-0.72502784371376,-4.49193339049816,4.85686370558449
6.63525887500146,1.13431620173156,-0.318107242584229,-4.39093794286251,4.54622936963864
6.64518887500162,0.537149349600077,-1.18269701421261,-4.03210484325886,4.23617411330492
6.65511887500179,-0.548940990865231,-1.17018631160259,-3.3335526072979,3.57536644288901
6.66504887500196,-1.52256876289845,-1.02197050452232,-1.62451555252075,2.44983471488374
6.67497887500213,-0.933495115041733,-0.544561133980751,-0.0657779601216316,1.08272189341813
6.68490887500229,-1.10361766174436,1.24075986564159,0.697059441804886,1.80092999667127
6.69483887500246,-1.41340431645513,0.918450229167938,0.801343655884266,1.86639069866376
6.70476887500263,-3.00796063631773,1.41983435332775,1.33711730182171,3.58491833370825
6.71469787500973,-3.78044418990612,1.21654245257378,1.32057143568993,4.1851693787312
6.7246278750099,-2.77785778999329,0.684845777750015,0.285740565061569,2.87526612876967
6.73455787501007,-1.63038147926331,1.39352129817009,-0.768215963244438,2.27820129544385
6.74448787501024,-1.09320121251047,1.94862437725067,-1.57863040477037,2.73574483633167
6.7544178750104,-0.304132104814053,1.28718091070652,-2.19282866120338,2.56082575968396
6.76434787501057,-0.417797226235271,1.24918219506741,-1.95338050246239,2.35599364730118
6.77427787501074,-0.717994739636779,1.21806214392185,-1.74970677852631,2.2495923282725
6.78420787501091,-0.346362084969878,1.20402473330498,-1.60311503559351,2.03460563000813
6.79413787501107,0.110036851018667,0.916056379079819,-1.90164580017328,2.11365185107473
6.80406787499669,0.370809293612838,0.0635814535617828,-4.06959602057934,4.08694921722571
6.81399787499686,0.0559241592139006,-0.533099421858788,-4.59227511942387,4.62345252788968
6.82392787499703,-1.54611710831523,0.112101649045944,1.22964343160391,1.97865304215532
6.83385787499719,-3.29581672400236,1.71184430301189,3.52920278191567,5.12328908728067
6.84378787499736,-2.84423275083303,2.3765592867136,0.868045476078987,3.80673047807657
6.85371787499753,-1.45152304619551,2.42037832081318,-0.61882223457098,2.88930637480668
6.8636478749977,-1.16788996383548,2.35884807050228,-1.65030265063047,3.10670726429413
6.87357787499786,-0.650701254308224,2.33922013700008,-1.76888038337231,3.00404740015605
6.88350787499803,-0.527142059281468,3.29711392879486,-1.43570866674185,3.63456990383653
6.89343687500514,-1.59877567067742,4.1396924418211,-0.672683569192886,4.48838950429693
6.9033668750053,-1.3683309084177,3.37806512117386,-0.0941550824046135,3.64589064802624
6.91329687500547,-1.29644026905298,2.42006724894047,-0.45821325391531,2.78342275744812
6.92322687500564,-1.20529007077217,1.3799300301075,-0.561002627313137,1.91615630639745
6.93315687500581,-0.720886041596532,0.628563988208771,-0.385514821708202,1.03120853855966
6.94308687500597,-0.336077380813658,0.419392712116241,0.0436763620376587,0.539208565836662
6.95301687500614,-0.47066818870604,0.165104904770851,1.27323617845774,1.36744964791135
6.96294687500631,-0.753206526115537,-0.538128612041473,2.42131036698818,2.59222807009051
6.97287687500648,-1.16318763300776,-0.29220349252224,2.66094417482615,2.91873470054501
6.98280687500665,-1.61470480173826,0.0650760018825531,2.62855937093496,3.08558436107452
6.99273687500681,-1.62688162833452,0.0220387405157089,2.68034611344338,3.1355198654365
7.00266687500698,-1.42746438503265,-0.605701959729195,2.37651601731777,2.83766767171992
7.01259687500715,-1.17513349458575,-1.62222110509872,1.89880200684071,2.76007048915555
7.02252687500732,-1.92082788348198,-0.810383158922196,0.505852274000645,2.14527087924537
7.03245687500748,-2.16186619251967,-0.224414382576942,0.261427257657051,2.18914856976701
7.04238687500765,-1.19407189518213,0.265123282670975,-0.197105546593666,1.23893044291279
7.05231687500782,-0.354684719368815,0.523719318509102,-0.599492216706276,0.871478107943497
7.06224654166726,0.729651748761535,-0.0569436943531036,-0.666828313618898,0.990098105563873
7.07217654166743,0.671347334235907,-0.104889693260193,-0.917087243199349,1.14138429224204
7.0821065416676,0.0311107321456075,-0.112116267085075,-0.400913756489754,0.417456315250414
7.0920355416747,0.131525551266968,-0.202050536870956,-0.675042335987091,0.716802305702786
7.10196554167487,0.391982244215906,-0.380734430551529,-0.779260184168816,0.951764267567737
7.11189554167504,0.456996667608619,-0.516751191616058,-0.669063850343228,0.961001656646909
7.12182554167521,0.206934770923108,-0.589796363711357,-0.389100188165903,0.736261303135565
7.13175554167538,-0.00908726748079062,-0.751945500969887,0.00237104594707489,0.752004146742559
7.14168554167554,-0.0755896245315671,-0.676500631570816,0.168787481188774,0.701324539466991
7.15161554167571,0.0223169766180217,-0.795589703321457,0.0172375917434692,0.796089290246771
7.16154554167588,0.0277860784158111,-0.741310000419617,-0.143174630105495,0.755520719491999
7.17147554167605,-0.204460009988397,-0.369142325520515,-0.337507280856371,0.540352770702817
7.18140554167621,-0.0504074026085436,-0.238423726558685,-0.473756030201912,0.53275844036162
7.19133554167638,0.206776183471084,-0.306492918133736,-0.436014592051506,0.571666881495545
7.20126554167655,0.194990060515702,-0.392738764286041,-0.27166470900178,0.515816415781686
7.21119554167672,-0.0481791749037802,-0.676867251992226,-0.488577698618174,0.836169048279681
7.22112554167688,0.180339770335704,-1.14469420552254,-0.796126039177179,1.40593880634171
7.23105554167705,0.333667962513864,-1.45940480053425,-1.46012722402811,2.09121213447575
7.24098554167722,0.604507227391005,-1.34762007057667,-0.944715629518032,1.75328162690558
7.25091554167739,0.416812774389982,-0.990313678979874,-0.300558578968048,1.11570136284788
7.26084554167755,0.165808745082468,-1.05039966702461,0.442864312827587,1.15193784554875
7.27077554167772,-0.0630782823823392,-1.02497772753239,0.467125287652016,1.12816853617256
7.28070454167028,-0.253749278783798,-1.16646631300449,-0.00158898085355759,1.19374824846688
7.29063454167044,-0.180026852935553,-1.18227426052094,-0.530998517274857,1.30848825757677
7.30056454167061,0.124120381549001,-1.06012884914875,-1.3857211124897,1.74914323241781
7.31049454167078,0.412265577502549,-0.933208601474762,-2.33822230964899,2.55110265759735
7.32042454167095,0.630514984801412,-0.943116708397865,-2.53605408042669,2.7782347939955
7.33035454167111,0.605394030734897,-0.730102642178536,-2.21479284971952,2.40932753434112
7.34028454167128,0.372476115524769,-0.373998438119888,-1.47567497044802,1.56723639147363
7.35021454167145,0.320403590351343,0.0716044181585312,-0.866279032230377,0.926404347513467
7.36014454167162,0.256206388436258,0.245878926515579,-0.413830840587616,0.545301865576725
7.37007454167178,0.00884025002829731,0.146145892739296,0.0649266055226326,0.160163154594995
7.38000454167195,-0.216709323786199,-0.0583552122116089,0.344654478728771,0.411284538386668
7.38993454167212,-0.252492675594986,-0.470499131083489,0.311291728019714,0.61808132435217
7.39986454167229,0.137172207422555,-0.780074116587639,0.115012977719307,0.80034981533266
7.40979454167245,0.342231575287879,-0.755413484573364,-0.129372862279415,0.839350535410364
7.41972454167262,0.424043660536408,-0.708348661065102,-0.437903827428818,0.934521596192751
7.42965454167279,0.415739773772657,-0.661386163830757,-0.875330229699612,1.17323238458086
7.43958454167296,0.521789079532027,-0.827034274935722,-1.06109568625689,1.44297387046
7.44951454167313,0.683151400834322,-0.763288514614105,-1.28586134031415,1.64400260934045
7.45944454167329,1.1701070818305,-0.460592778325081,-1.38122635781765,1.86790860106305
7.46937454167346,1.58008489966393,-0.239599601626396,-1.46567360043526,2.16847304854322
7.47930454167363,1.48321159288287,0.00498299717903137,-1.90119132533669,2.41132119699109
7.48923354166618,1.65368263363838,0.196480479240417,-2.13517102181911,2.70780836174494
7.49916354166635,2.0063936984539,0.419807864427567,-2.2529184499383,3.04589820222265
7.50909354166652,2.1229092644155,0.722311227321625,-2.32251434952021,3.22839745969782
7.51902354166668,1.59004797041416,0.447940573096275,-1.79691500499845,2.44086190523605
7.52895354166685,1.04710929259658,0.14219551384449,-0.672140947580338,1.25237010832014
7.53888354166702,0.781794879063964,1.36867121636868,-0.832837782651186,1.78271784185218
7.54881354166719,0.430792955383658,2.30191197752953,-0.495609413981438,2.3937439324057
7.55874354166735,0.101781039331108,3.05263891875744,0.166495080292225,3.05886978474753
7.56867354166752,0.386672643497586,3.84275621294975,0.502166920155287,3.89467105942101
7.57860354166769,0.950910389050841,4.33827441036701,0.592827852666378,4.48065846617962
7.58853354166786,0.549058885350824,4.60409175753594,0.376745167672634,4.65199564625309
7.59846354166803,-0.199281587898731,3.65275912642479,0.489766291379929,3.69083099140655
7.60839354166819,-0.63634465880692,2.57434720337391,0.566881710290909,2.71174352064747
7.61832354166836,-0.662002021819353,2.31867945313454,0.593497066497803,2.48329616663472
7.62825354166853,-0.189175845086575,1.77133972227573,0.348128017187119,1.81511019732322
7.6381835416687,0.213154326304793,1.01599698901176,0.229027251005173,1.06307955027195
7.64811354166886,0.321866929158568,0.094174085855484,0.0929949948191643,0.348016016289623
7.65804354166903,0.0822701049596071,-0.326046591997147,-0.166918126344681,0.375414985350129
7.6679735416692,-0.194961445704103,-0.498062320947647,-0.00494323611259461,0.534883610182679
7.67790354166937,-0.211643040329218,-0.767287425398827,0.524412798285484,0.953169215145227
7.68783354166953,0.0879250294435769,-1.14092801392078,0.887769011557102,1.44830292467873
7.69776254167664,0.439096293970943,-1.3447946959734,0.80026864528656,1.62533326869476
7.70769254167681,0.383431239500642,-1.20569879114628,0.566961524784565,1.38642506504414
7.71762254167697,-0.155720708370209,-0.749289695620537,0.598273072242737,0.971398299334109
7.72755254167714,-0.775762160494924,-0.439324700832367,0.11563629090786,0.898991031207836
7.73748254167731,-0.870152666419745,-0.550515938401222,-0.381998598575592,1.09825151519353
7.74741254167748,-0.126507799699903,-0.439397206306458,-0.717351911365986,0.850686718501743
7.75734254167764,0.482537378668785,-0.25115720808506,-0.756703965067864,0.931945897429165
7.76727254166326,0.469034622833133,-0.0514239227771759,0.199772461652756,0.512393338837278
7.77720254166343,0.589703027531505,-0.207433483600616,0.789624081552029,1.00711692517075
7.7871325416636,0.53743783660233,-0.425109534859657,0.873718152344227,1.11037874375197
7.79706254166376,0.261656980141997,-0.598073682188988,0.781429501175881,1.0182281521801
7.80699254166393,0.172927090600133,-0.702135994434357,0.548531101047993,0.907626080586424
7.8169225416641,0.129619395509362,-0.490049881339073,0.415342345833778,0.655331471955497
7.82685254166427,0.217521026954055,-0.444272029995918,0.179943383932114,0.526376913651027
7.83678254166443,0.427107016816735,-0.746713997125626,-0.278366641402245,0.904151637925291
7.8467125416646,0.451093172505498,-0.844757185578346,-0.574864036738873,1.11694602089941
7.85664254166477,0.465209812894464,-0.681953744888306,-0.793889917731285,1.14531318059991
7.86657254166494,0.604302428662777,-0.600073429942131,-0.808369377851486,1.17419359462494
7.8765025416651,0.571543256789446,-0.513825244903565,-0.853370134234428,1.14844184122879
7.88643254166527,0.472537543550134,-0.58636404812336,-0.834909889698029,1.12436161928073
7.89636154167238,0.521116649731994,-0.792182530760765,-0.930117178559303,1.32824458987099
7.90629154167254,0.637034337893129,-0.778777204155922,-0.833971119225025,1.30683377254695
7.91622154167271,0.685461343377829,-0.831954122185707,-1.10495155781508,1.54367187569285
7.92615154167288,0.665473806113005,-0.731717643141747,-1.10000042796135,1.47927922902425
7.93608154167305,0.747505783215165,-0.764973682165146,-1.23130667209625,1.63097080019667
7.94601154167322,0.665396476686001,-0.684611889123917,-1.42841865062714,1.71808781829551
7.95594154167338,0.658731747195125,-0.474909101128578,-1.59642874449492,1.79110326484743
7.96587154167355,0.741512898802757,-0.385308122634888,-1.78565779924393,1.97151654937511
7.97580154167372,0.838375680595636,-0.283420389890671,-1.67592602670193,1.89523849322371
7.98573154167389,0.598622589558363,-0.0974070113897324,-1.45672502160072,1.57793691862351
7.99566154167405,0.545050984472036,-0.190274829268456,-1.41312642753124,1.52650299263195
8.00559154167422,0.59079521432519,-0.294790300726891,-1.3158743673563,1.47223152300769
8.01552154167439,0.491370401903987,-0.511020335555077,-1.31200555711985,1.49128978978985
8.02545154167456,0.484469444900751,-0.677616280317307,-1.34948123931885,1.58586698107598
8.03538154167472,0.501462476849556,-0.797425729036331,-1.27189395010471,1.58274022800022
8.04531154167489,0.467237481102347,-0.854305104017258,-1.12296565979719,1.48633776362594
8.05524154167506,0.505580597743392,-0.740066882371903,-0.875305671393871,1.25278519690029
8.06517124999664,0.560594710931182,-0.712089124917984,-0.806657020747662,1.21327362984282
8.07510124999681,0.730747151523829,-0.50406858086586,-0.818205564022064,1.20728492025411
8.08503124999697,1.0113695025444,-0.102447311282158,-0.704814019203186,1.23698283089589
8.09496025000408,1.27768342450261,0.31622619330883,-0.744677411913872,1.51228912129859
8.10489025000425,1.54668677330017,0.560319380164146,-0.742234737575054,1.80474657172478
8.11482025000441,1.62094334229827,0.811591193675995,-0.809686170816422,1.98537887563177
8.12475025000458,1.67181134104729,0.985600238442421,-0.77800800293684,2.0908508896394
8.13468025000475,1.5236043047905,0.843529270291329,-0.591779446899891,1.83932450132854
8.14461025000492,1.27032426506281,0.708114187717438,-1.13420927077532,1.84433730948728
8.15454025000508,0.812086452841759,0.587066883444786,-0.808693313598633,1.28767884504865
8.16447025000525,0.447464317381382,1.13427154362202,-0.305886561870575,1.25712483021109
8.17440025000542,0.174767720997334,2.11137402355671,-0.011925396323204,2.11862838618058
8.18433025000559,-0.228050692901015,3.44063383698463,0.53811370164156,3.48991900688693
8.19426025000576,-0.153644435182214,4.78494496822357,0.724507733881474,4.84192280172295
8.20419025000592,0.250499396324158,5.75371458113194,1.29598974108696,5.90318311063545
8.21412025000609,0.394255020394921,5.85396100044251,2.05633272081614,6.21713765928562
8.22405025000626,0.0053957375138998,4.82518082857132,2.61622233062983,5.48880847048626
8.23398025000643,-0.721046693846583,2.7226349312067,2.59667976647615,3.83084783213334
8.24391025000659,-1.18825040727854,0.720751190185547,2.14770686745644,2.55813723186834
8.25384025000676,-1.46496418699622,-0.286189631223679,1.73725103974342,2.29042916268787
8.26377025000693,-1.73353191822767,-0.76059645652771,1.59745814681053,2.47699665159402
8.2737002500071,-2.03697142034769,-1.27041518926621,1.73201748937368,2.9602520000716
8.28363025000726,-2.18013669490814,-1.58512461483479,1.82181551903486,3.25340250175664
8.29356025000743,-2.17538934051991,-1.2475502371788,1.99447824239731,3.20416039494417
8.30348924999998,-2.09696019843221,-0.0720897370576859,1.89143042206764,2.82488018250702
8.31341925000015,-1.61554621607065,0.481556800603867,1.66003943413496,2.36592845440245
8.32334925000032,-0.881653774157167,0.503010234832764,1.54844473868609,1.85148961179822
8.33327925000049,-0.619162761792541,0.513762679696083,0.908944118320942,1.21387562248745
8.34320925000066,-0.688391675502062,0.0956721425056458,0.688050051927567,0.977982173513241
8.35313925000082,-0.583042683452368,-0.223132672905922,0.518832800388336,0.811735446561429
8.36306925000099,-0.622261859178543,-0.240940368175507,0.213181881308556,0.700505957807027
8.37299925000116,-0.686282730996609,-0.0907131189107895,-0.122907888293266,0.703078378142435
8.38292925000133,-0.122515686303377,-0.668218635320664,-0.202761558294296,0.70897001876111
8.39285925000149,-0.451780805066228,-0.155311403274536,-0.692614680826664,0.841393263527832
8.40278925000166,-0.656208015829325,-0.281805973649025,-0.750784828662872,1.03619565033505
8.41271925000183,-0.41871655471623,-0.411181467175484,0.0616913411021233,0.59008437846548
8.422649250002,-0.340773023888469,-0.860755167603493,0.0408752533793449,0.926658782241356
8.43257925000216,-0.358627423793078,-1.05499674797058,-0.0154489284753799,1.11439240697162
8.44250925000233,-0.246058362945914,-1.2556077003479,-0.0104714861512184,1.27953314422518
8.4524392500025,0.0271901375055313,-1.49737837314606,-0.0917200094461441,1.5004312233741
8.46236925000267,0.449892446771264,-1.57990305125713,-0.0292936733365059,1.64297138877431
8.47229925000283,0.9793367010355,-1.30916644155979,-0.0920948159694672,1.63752819848388
8.482229250003,1.23328975528479,-1.03864559412003,-0.761411558389664,1.78312530460558
8.49215925000317,1.45431158334017,-0.932882326841354,-1.66148018807173,2.39704151664613
8.50208825001027,1.61872154653072,-1.15217220962048,-1.89083926856518,2.7428148653113
8.51201825001044,1.61153736501932,-1.45676185905933,-1.35419087916613,2.55989076526327
8.52194825001061,1.57873214632273,-1.50096388578415,-1.04032959222794,2.41403675132053
8.53187825001078,1.65484769135714,-1.59044967412949,-1.14027985006571,2.56286737542045
8.54180825001095,1.68637324690819,-1.76991475582123,-1.95513320535421,3.13033525703558
8.55173824999656,2.01408424884081,-1.6508473187685,-2.17879008114338,3.39543199740513
8.56166824999673,2.18009254842997,-1.10117337942123,-2.02939021289349,3.17550168752179
8.5715982499969,1.96819939345121,-0.69442527115345,-1.75100836873055,2.7243468239126
8.58152824999706,1.81170743733645,-0.55550302863121,-1.29033782243729,2.29256170022332
8.59145824999723,1.87547746360302,-0.476614733934403,-0.558276363015175,2.01401336107475
8.6013882499974,1.59703685492277,-0.179052268266678,0.0386907336115837,1.60750844589398
8.61131824999757,1.32174000173807,-0.470515503287315,0.171069064736366,1.41338108659273
8.62124824999773,1.12396202534437,-0.868278779983521,0.328177317380905,1.45770333944504
8.6311782499979,0.903765604868531,-0.993679336309433,0.51546743541956,1.43871385929578
8.64110824999807,0.693407782539725,-0.874761003255844,0.418187308609486,1.19201585173431
8.65103824999824,0.695689950808883,-0.427930816411972,0.0839996382594109,0.82107565456491
8.66096824999841,0.661226607933641,0.00143081367015839,0.110299244821072,0.670364525967243
8.67089824999857,0.869745846390724,0.429607213139534,-0.269751938581467,1.00686955623054
8.68082824999874,1.23662149876356,0.723072534799576,-0.554931755661964,1.53623431651158
8.69075725000585,1.54964107900858,0.943952860236168,-0.509207698702812,1.8846025990954
8.70068725000601,1.66485169261694,1.10761759579182,-0.357601383626461,2.03136078688368
8.71061725000618,1.6328346785903,1.07725592851639,-0.262462214827538,1.97370611726847
8.72054725000635,1.50442309856415,1.03030395627022,-0.182888918817043,1.83255653621532
8.73047725000652,1.09658601947129,1.2152817928791,-0.088175719678402,1.63926376515317
8.74040725000668,0.386402136683464,2.17449062347412,0.14278842151165,2.21316619713211
8.75033725000685,0.176955456733704,3.10070595502853,0.136999093294144,3.108771365794
8.76026725000702,-0.0361813279241323,3.70315569341183,0.231414376795292,3.71055572548457
8.77019725000719,-0.367423609569669,3.76710435211659,0.30902213126421,3.79757422392453
8.78012725000735,-0.494354893863201,3.75843877851963,0.380797580480576,3.8098891860875
8.79005725000752,-0.724658226594329,2.92096079170704,0.53029012709856,3.05587125235322
8.79998725000769,-0.150138298496604,1.60833864569664,0.187981258928776,1.62623235167217
8.80991725000786,0.417618374526501,0.518078509569168,-0.123538802862167,0.676810375683016
8.81984725000802,0.323103322908282,-0.0126633149385452,-0.0143633928894997,0.323670239402551
8.82977725000819,0.424502593874931,-0.259513463973999,-0.0493996167182922,0.499990012222487
8.83970725000836,0.589717426300049,-0.0826854765415192,-0.192413156032562,0.625800570091833
8.84963725000853,0.46929730899632,0.241404052376747,-0.140207752883434,0.546053197686567
8.8595672500087,0.0894553828239441,0.337939828634262,0.0405165266990662,0.351919283684894
8.86949725000886,-0.230380077436566,0.404953013062477,0.0721216043829918,0.471448246032196
8.87942725000903,-0.417800734564662,0.478965899348259,0.0856982544064522,0.641334528424574
8.88935625000158,-0.637250611782074,0.637631850242615,0.297267181277275,0.949226261607307
8.89928625000175,-0.982193942964077,0.562403327822685,0.580765923857689,1.27212086810005
8.90921625000192,-1.14905703239143,0.369980231523514,0.65177071005106,1.37186824946379
8.91914625000209,-1.23953282743692,0.122409120798111,0.854413862228394,1.51044651382178
8.92907625000225,-1.028123748824,-0.0406556904315949,1.10002937167883,1.50623900713549
8.93900625000242,-0.555101032555103,-0.137995458841324,1.35482851803303,1.47062579070277
8.94893625000259,-0.168285790085793,-0.292525674104691,1.42659431934357,1.46596818831056
8.95886625000276,0.352762008681893,-0.949906495213509,1.27462956994772,1.62832549725269
8.96879625000292,0.360631191506982,-1.17036874473095,1.39978863626719,1.85989948146495
8.97872625000309,0.373092119693756,-1.77821429371834,1.56999494433403,2.401276312588
8.98865625000326,0.206235096752644,-1.70387162446976,1.52461411893368,2.29568282640649
8.99858625000343,-0.213712516129017,-1.59679039478302,1.63873890459538,2.29801605778897
9.0085162500036,-0.624885431751609,-1.75168430685997,1.49727780103683,2.38761817030961
9.01844625000376,-0.910948543846607,-1.69151353418827,1.02360304713249,2.17688044779158
9.02837625000393,-0.7806047514081,-1.52164665699005,0.447711362242699,1.76782289569151
9.0383062500041,-0.730881783664227,-1.35833100020885,-0.178224302530289,1.55274440582892
9.04823625000427,-0.851476513445377,-0.686205840110779,-0.39717095375061,1.16345841114086
9.05816625000443,-0.478721485733986,-0.699211801886559,-0.668634957075119,1.07941841313906
9.0680960000027,0.0976552987843752,-0.588587159514427,-1.10119121342897,1.25243502436618
9.07802600000287,0.0429115462303162,0.871538017988205,-0.900520327091217,1.25393651238935
9.08795500000997,-0.314492493867874,0.963147515058518,-0.589156678318977,1.1720342384378
9.09788500001014,-0.219130546152592,0.00477951407432556,-0.684628261327744,0.718858050118776
9.10781500001031,-0.019380596280098,0.0308972722291946,-0.919990385770798,0.920713070860884
9.11774500001047,-0.0155682116746902,0.0455784612894058,-1.0908939743042,1.09195669718239
9.12767500001064,-0.0555136846750975,-0.274047887921333,-1.04696998268366,1.08366515063509
9.13760500001081,0.0230009729415178,-0.412685371041298,-0.911515139043331,1.00084869432544
9.14753500001098,0.0545262361317873,-0.491728032231331,-0.863115980923176,0.994856152734541
9.15746499999659,-0.328292507529259,-0.902171580791473,-0.500707016587257,1.08277285159324
9.16739499999676,-0.0694675531983376,-1.13294656455517,-0.484330719709396,1.23408666840662
9.17732499999693,-0.0311621510982513,-1.20366571426392,-0.335014466643333,1.24980675474885
9.18725499999709,-0.0651414906978607,-1.3025204962492,-0.150969260931015,1.31285748453732
9.19718499999726,-0.0911496135592461,-1.29836020231247,-0.189403594136238,1.31526468380802
9.20711499999743,-0.0224457798153162,-1.28057765007019,-0.339136168956757,1.32491368473024
9.2170449999976,0.102399364113808,-1.05625799238682,-0.464684659838676,1.158489710503
9.22697499999777,-0.0962372028082609,-0.838037565350533,-0.361125500500202,0.91759478379867
9.23690499999793,-0.253857744634151,-0.947425521612167,-0.380169589519501,1.05194476580677
9.2468349999981,0.00780544817447662,-0.819758584499359,-0.767471612691879,1.12297717615697
9.25676499999827,0.772615115940571,-0.614628903865814,-0.96273762524128,1.37897300260098
9.26669499999844,1.22696569919586,0.417546161413193,-0.468662813007832,1.37819971564737
9.27662400000554,0.735770055949688,0.0680680221319199,-0.398690060377121,0.839609787408812
9.28655400000571,0.972680888548493,-0.186059571504593,-0.610461300909519,1.16335260132262
9.29648400000588,1.08906642705202,-0.176963058114052,-0.619894906282425,1.26556362989137
9.30641400000604,1.2566710165143,-0.528391828536987,-1.16479108572006,1.79308623372795
9.31634400000621,1.2024562177062,-0.701582847833633,-1.33731903076172,1.93042524794723
9.32627400000638,1.11135922908783,-0.625032269954681,-1.21229678928852,1.75938858126414
9.33620400000655,0.787852375209332,-0.280390362739563,-0.931709960103035,1.25196388541979
9.34613400000671,0.735797026231885,-0.077368603348732,-0.936558763682842,1.19353486854258
9.35606400000688,0.698823619857431,0.0719868260622025,-0.874378887712956,1.12163942248625
9.36599400000705,0.644702084138989,0.0992401134967804,-0.752918185293675,0.996180290492605
9.37592400000722,0.534946045652032,0.3360850918293,-0.698958909809589,0.942159231929967
9.38585400000738,0.404060143232346,0.574760248661041,-0.644726861715317,0.953565241085856
9.39578400000755,0.215179290175438,0.634559723138809,-0.619868009090424,0.912800371299296
9.40571400000772,0.0388091397285461,0.483539006710053,-0.820027556419373,0.952765088373698
9.41564400000789,-0.0770312190055847,0.532938623428345,-0.962789665460587,1.10314157067935
9.42557400000806,-0.224964020848274,0.826827283501625,-0.874421864748001,1.22428173431129
9.43550400000822,-1.02260441578925,0.93348926782608,-0.388147822916508,1.43797800288216
9.44543400000839,-1.27617557376623,1.40890122950077,-0.322368693351746,1.92809448524175
9.45536400000856,-0.0306712773442268,2.78953935742378,-0.0564870268106461,2.79027979565995
9.46529400000873,0.394810250066221,4.55151885688305,0.953358691334725,4.66702173044682
9.47522400000889,0.360070735886693,3.81160341739655,1.0632574018836,3.97347302104988
9.48515300000145,0.357197048664093,2.53132806837559,0.593412866592407,2.6243761833163
9.49508300000161,0.664111843407154,2.4462124890089,0.381646303832531,2.5633286919874
9.50501300000178,0.782974043190479,2.17111736476421,0.305672261416912,2.3281397069958
9.51494300000195,0.968409716784954,1.73946479558945,0.308060556650162,2.01456110883293
9.52487300000212,0.946517156660557,1.27429715573788,0.67080164283514,1.72328256911185
9.53480300000229,0.929604377746582,0.777434683442116,1.0208267891407,1.58450507085704
9.54473300000245,0.972544282972813,0.381973455548286,1.19281123548746,1.58573161240852
9.55466300000262,1.11324904918671,0.207812967896462,1.13448818296194,1.60298880608111
9.56459300000279,1.12692130118608,0.150609072446823,1.15819279521704,1.62297420271022
9.57452300000296,0.91524186193943,0.137686725854874,1.26739364057779,1.56936673231594
9.58445300000312,0.460247500240803,-0.00588697671890259,1.4102466738224,1.48346152595878
9.59438300000329,-0.214597199857235,-0.346324735879898,1.69976454019547,1.74791083095642
9.60431300000346,-0.955038888752461,-0.857642694711685,1.89578893661499,2.2894684891943
9.61424300000363,-1.39218199342489,-1.255935729146,1.86259312391281,2.64287691802121
9.62417300000379,-1.58523337304592,-1.28311183333397,1.71035969495773,2.66170454971924
9.63410300000396,-1.53244938790798,-1.0984719657898,1.61143065333366,2.48027227066486
9.64403300000413,-1.50307268410921,-1.19167950689793,1.49891648322344,2.43435374679907
9.6539630000043,-1.32469664633274,-1.32437388002872,0.985355532467365,2.11653322777404
9.66389300000446,-1.06965045511723,-1.23469864189625,0.479008291661739,1.70237533344255
9.67382300000463,-0.394818618893623,-0.930579108595848,0.064906140267849,1.01295213422184
9.6837530000048,0.24988894701004,-0.160472155809402,0.000960112810134888,0.296979326628154
9.69368199999735,-0.053498478345573,-0.408046774864197,0.106997029781342,0.425220674526055
9.70361199999752,-0.0352356138825417,-0.813608483076096,-0.222716935873032,0.844276699751768
9.71354199999769,0.20220022559166,-0.622248410582542,-0.834978302121162,1.06078592596007
9.72347199999786,0.0212476487830281,-0.68451190173626,-1.13356724649668,1.3243801223695
9.73340199999802,-0.205794472508132,-0.724206894636154,-1.13755036979914,1.36412896567135
9.74333199999819,-0.279955293349922,-0.427659505605698,-1.01066257417202,1.13256631498626
9.75326199999836,-0.358153616599739,-0.354586266875267,-0.988526477515698,1.10959002811381
9.76319199999853,-0.310143298320472,-0.516740081906319,-0.899989692270756,1.0831392449428
9.77312199999869,-0.0548500987887383,-0.612335625886917,-0.938481620550156,1.12192299387164
9.78305199999886,0.0910198419168592,-0.547270733714104,-0.692413536608219,0.887257782879838
9.79298199999903,-0.0728834965825081,-0.724743669033051,-0.242453627586365,0.767690791534826
9.8029119999992,0.103855028450489,-0.911884390711784,-0.0824936878681183,0.921479363575949
9.81284199999936,0.632386532351375,-0.853711026906967,-0.000378314852714539,1.06241959078514
9.82277199999953,1.04526588477194,-0.645781699419022,-0.0113450601696968,1.22871619325329
9.8327019999997,1.23378296792507,-0.621739702820778,-0.130070435106754,1.38769556751275
9.84263199999987,1.14836976528168,-0.668770027756691,-0.120430423021317,1.33435750630327
9.85256200000003,1.14520086675882,-0.923844870328903,-0.15520147562027,1.47954785921
9.8624920000002,1.09953827865422,-1.11715966701508,-0.0935534039139748,1.57028098989162
9.87242200000037,1.12395508177578,-1.1901136225462,-0.113418149650097,1.64088669233731
9.88235200000054,1.08387417264283,-0.848609331250191,-0.278104978501797,1.40437295554797
9.89228200000071,0.830673947408795,-0.770647235512734,-0.35520285576582,1.1874701837315
9.90221100000781,1.23213580727577,-0.947227301001549,-0.756849853098393,1.72864684290021
9.91214100000798,1.81634369462729,-0.288276502490044,-1.0560311204195,2.1207096657003
9.92207100000815,1.34176349937916,-0.66318301320076,-0.948047080636025,1.77170377444051
9.93200100000831,1.49970702677965,-0.891657702326775,-0.912009228765965,1.96873956064412
9.94193100000848,1.33124962091446,-1.0474959397316,-0.836968694329262,1.88944168796666
9.95186100000865,0.939144694805145,-1.25562407255173,-0.638078577518463,1.69284637236815
9.96179100000882,0.900571490228176,-1.46300843954086,-0.544933016896248,1.80232480315931
9.97172100000898,0.843631888926029,-1.58182970881462,-0.446274701356888,1.84744718483983
9.98165100000915,0.767122241556644,-1.39833940386772,-0.408617463111877,1.64645007609099
9.99158100000932,0.6947205555439,-1.14130691349506,-0.440514024496079,1.4068655681566
10.0015110000095,0.357371588051319,-0.999109060764313,-0.31033278465271,1.10554954863089
10.0114410000097,0.0537330247834325,-0.472024084925652,-0.2826190289855,0.552781593621733
10.0213710000098,0.575265740454197,0.112403950095177,-0.476736356019974,0.755541443792806
10.03130100001,0.732489767968655,0.809405504465103,-0.0990027165412903,1.09612046268635
10.0412310000102,0.441113364100456,1.14756928145885,0.760108798742294,1.4454278403509
10.0511610000103,0.105942776799202,1.43997567236424,1.34240727782249,1.97149971050151
10.0610910000105,0.0279628835991025,1.74955416619778,1.85050956040621,2.54678372392984
10.0710214999999,0.0774147963523865,1.81667435467243,2.22275704979897,2.87174993062589
10.0809515000001,0.0396760625392199,1.27742541611195,2.36018474400044,2.68400110087157
10.0908815000003,-0.80565159201622,0.53184928715229,1.56455323308706,1.83841371054664
10.1008105000074,-1.82524695754051,0.674735941886902,0.358903850913048,1.97878928172888
10.1107405000075,-0.911458421051502,1.16481856763363,-1.68522865444422,2.24222085588588
10.1206705000077,0.386241630613804,1.92174881994724,-2.50135144025087,3.17790184741961
10.1306005000079,0.635349681973457,1.49537511706352,0.441938698589802,1.68378317262876
10.140530500008,1.04237757951021,2.21622454047203,0.104640309512615,2.45135713971484
10.1504605000082,1.14610835462809,3.44711255192757,-0.552723262310028,3.67445945832901
10.1603905000084,1.03780505686998,3.76245815455914,-0.860034352093935,3.99659727614068
10.1703205000085,0.82538009762764,3.45223997533321,-1.02910834684968,3.6957106410546
10.1802505000087,0.940943298339844,3.25712774455547,-1.58712100043893,3.74342203138759
10.1901805000089,0.997448963150382,2.07066687762737,-1.70412568598986,2.8612252805124
10.200110500009,0.512643778435886,0.452840539813042,-1.88392332807183,2.00425430126031
10.2100405000092,0.0184522046148777,-0.220626556277275,-2.22225915938616,2.23326047129877
10.2199705000094,-0.582542673423886,-0.40308658182621,-1.61568055585027,1.76415940814905
10.2299005000095,-1.09790807493031,-0.173281651139259,-1.01412310257554,1.50461767196726
10.2398305000097,-1.28826381504536,-0.116958346366882,-0.394302894473076,1.35232306958431
10.2497605000099,-1.40816097199917,-0.439286693930626,0.378538070172072,1.52288581091812
10.25969050001,-1.48311175167561,-0.614113764166832,0.798148298710585,1.79270658224709
10.2696205000102,-1.60471614941955,-0.47614754140377,1.17654413536191,2.04599279173883
10.2795505000104,-1.58672353595495,-0.198714115619659,1.49785872191191,2.19106358422285
10.2894805000105,-1.28309356078506,0.0789520293474197,1.51138888657093,1.98415192843599
10.2994105000107,-0.794265016615391,-0.0809897840023041,1.55757604300976,1.75027409038977
10.3093395000033,-0.39416234202683,-0.48106563448906,1.86292904645205,1.96399916717731
10.3192695000034,-0.122525480389595,-0.5812553358078,2.10420650660992,2.18644809707645
10.3291995000036,0.115148121491075,-0.446567062139511,2.32701202780008,2.37227026461934
10.3391295000038,0.35761015444994,-0.338747913837433,2.05533021569252,2.11353198869418
10.3490595000039,0.577594613358379,-0.253486738801003,1.42191391557455,1.55554178582034
10.3589895000041,0.764085197746754,-0.360593111515045,0.774237425923348,1.14599178582929
10.3689195000043,0.978885880708695,-0.426563737392426,0.346517109274864,1.1226078106486
10.3788495000044,1.26161980748177,-0.379744496941567,0.0594039103388786,1.31887044327761
10.3887795000046,1.46926408320665,-0.440084254145622,-0.13392491966486,1.53959312191736
10.3987095000048,1.59465046003461,-0.717976101636887,-0.255775046646595,1.76743335000145
10.4086395000049,1.68792392849922,-1.18960491478443,-0.396017590463162,2.10263572062204
10.4185695000051,1.71139728337526,-1.61720068573952,-0.485612429380417,2.40417099039759
10.4284995000053,1.579922054708,-1.95886869907379,-0.475316944420338,2.56110259006095
10.4384295000054,1.26666580840945,-2.09407854437828,-0.426654076874256,2.48427875278368
10.4483595000056,0.653657168000937,-1.83049249470234,-0.481685731709004,2.00249634470893
10.4582895000058,0.18842301607132,-1.52154140710831,-0.488475226163864,1.60909898176165
10.4682195000059,0.22597610078752,-1.4009542787075,-0.452813350260258,1.48955631626666
10.4781495000061,0.550615852698684,-1.28978526055813,-0.447646165788174,1.47211104382141
10.4880795000063,0.663457832336426,-1.05023477554321,-0.504428769350052,1.34075268502318
10.4980095000064,0.564647562280297,-0.938544770479202,-0.561343519985676,1.23077199481173
10.5079395000066,0.502525135204196,-0.985719521641731,-0.649362680464983,1.2829054437636
10.5178684999992,0.496374522149563,-0.985287997126579,-0.742843140363693,1.33003610278304
10.5277984999993,0.426315157637,-0.938878646492958,-0.842796760350466,1.33174475997796
10.5377284999995,0.36375930570066,-0.905458300709724,-0.96251031473279,1.37062090775494
10.5476584999997,0.342876048088074,-0.885739735364914,-1.06317466378212,1.42563642941145
10.5575884999998,0.357038589119911,-0.892669270634651,-1.16236566066742,1.50845248846457
10.5675185,0.394895144328475,-1.03951390564442,-1.24581200614572,1.66990385642382
10.5774485000002,0.386876272782683,-1.30644982516766,-1.30988988831639,1.89005182882278
10.5873785000003,0.344360656142235,-1.5841837978363,-1.33498774588108,2.10009877112445
10.5973085000005,0.327394959926605,-1.60826497077942,-1.36511435508728,2.13476951413656
10.6072385000007,0.389954904913902,-1.20507489323616,-1.38627075076103,1.87776913399654
10.6171685000008,0.490260600373149,-0.67136443734169,-1.26040095537901,1.50986629617516
10.627098500001,0.541466202735901,-0.281644005775452,-1.08985200047493,1.2491142372232
10.6370285000012,0.665965045318008,0.309730521440506,-0.880019111931324,1.14624433471299
10.6469585000013,0.719806864857674,0.70984964132309,-0.659026227593422,1.20678250096642
10.6568885000015,0.701785965487361,0.760623938441277,-0.523642866164446,1.15985092506316
10.6668185000017,0.629478200376034,0.695425729751587,-0.499234102964401,1.06258855626806
10.6767485000019,0.537492434978485,0.647690230607987,-0.53720650613308,0.998494658331149
10.686678500002,0.58842424146831,0.639901739358902,-0.743188856989145,1.14369882448787
10.6966085000022,0.685881904363632,0.718643853664398,-0.788151460289955,1.26809530379238
10.7065385000024,0.716980393901467,1.36888814806938,-0.707994173616171,1.69975627577555
10.7164675000095,0.713201192244887,2.30559513866901,-0.567243214398623,2.47915101362442
10.7263975000096,0.591758396923542,2.88551497042179,-0.330521466135979,2.96405450092175
10.7363275000098,0.315991062149406,3.06749961733818,-0.00650575831532478,3.08373905812724
10.74625750001,-0.161390314847231,2.93966603457928,0.348253439962864,2.96461864107873
10.7561875000101,-0.746157634556294,2.79177942574024,0.741770176291466,2.98345547512086
10.7661175000103,-1.52119583666325,2.95643175601959,0.882713216543198,3.44001571568252
10.7760475000105,-2.38312073975801,3.41578901767731,1.08313471913338,4.3034939169635
10.7859775000106,-3.21504884183407,3.98476461589336,1.32677708566189,5.28916113712674
10.7959075000108,-3.59184137195349,4.56047328293324,1.97713642403483,6.13256140979198
10.805837500011,-3.31492133170366,4.3021701925993,2.36026061162353,5.92184109515405
10.8157674999966,-2.25009073644877,2.72495802998543,2.31899622604251,4.22682482294145
10.8256974999968,-1.09056864984334,1.55986873626709,2.27349085494876,2.96501115039054
10.8356274999969,-0.418078623488545,0.794045453667641,2.16062439009547,2.33957168579716
10.8455574999971,-0.0517116788774729,-0.0715488696098328,1.95032109305263,1.95231803364123
10.8554874999973,0.281509446725249,-0.747703930735588,1.72655458196998,1.90244565261521
10.8654174999974,0.51870503872633,-1.19566438436508,1.45085792541504,1.95029663307376
10.8753474999976,0.508723256886005,-1.28187105417252,1.34814515054226,1.92859744336465
10.8852774999978,0.237259911373258,-1.15061509609222,1.17715590029955,1.6631005316908
10.8952074999979,-0.0338559633493424,-1.25374770104885,0.878951117992401,1.53153014725786
10.9051374999981,-0.181378875374794,-1.43873781681061,0.633034184575081,1.5822759180351
10.9150665000052,-0.302312451303005,-1.43293620944023,0.637875094413757,1.59736772053624
10.9249965000054,-0.494263604208827,-1.35119213461876,0.687558008730412,1.59460111327894
10.9349265000055,-0.320635286271572,-1.62554466247559,0.81653442978859,1.84714128088122
10.9448565000057,-0.240044026561081,-1.82672922670841,0.744910569638014,1.98732296297225
10.9547865000059,-0.0990281519293785,-1.36578386127949,0.766337252855301,1.56921793123832
10.964716500006,0.124901167564094,-1.11298709392548,0.793920177072287,1.37282548798674
10.9746465000062,0.370066551044583,-1.10930451750755,0.485968817174435,1.26636150290137
10.9845765000064,0.564236722290516,-1.23386892199516,0.228550702929497,1.37587463791445
10.9945065000065,0.469346023611724,-0.974477664828301,-0.290051278620958,1.11983130575949
11.0044365000067,0.659222767129541,-1.17354027450085,-0.522190125435591,1.44376381713904
11.0143665000069,0.932893802002072,-1.79811470746994,-0.616847776025534,2.11754776234711
11.024296500007,1.03847361288965,-1.84805402219296,-0.860947102457285,2.28800372089759
11.0342265000072,1.09464956782758,-1.66272827625275,-1.14790739670396,2.29795874384272
11.0441565000074,1.21753121674061,-1.71381890773773,-1.45642213582993,2.55748371451171
11.0540865000075,1.35415842711926,-1.96199871361256,-1.5496238297224,2.8433286851152
11.0640161250049,1.46459245026112,-2.0129402410984,-1.24653983831406,2.78402963850947
11.073946125005,1.52473720282316,-1.76394533336163,-0.908876290619373,2.50247533222833
11.0838761250052,1.50751276731491,-1.46550987839699,-0.544739474058151,2.17187822906667
11.0938061250054,1.46655068278313,-1.29123186171055,-0.252989871650934,1.9702929987761
11.1037361250055,1.42475975543261,-1.23221766829491,0.123875602483749,1.88776214276302
11.1136651249981,1.45600172102451,-1.09031568467617,0.447990274429321,1.87334582761979
11.1235951249982,1.571038672328,-0.915725426673889,0.777055491507053,1.97750620830592
11.1335251249984,1.65719008594751,-0.819428216814995,1.13146356448531,2.16747580868464
11.1434551249986,1.66975019752979,-0.834745582938194,1.26755940914154,2.25645136577079
11.1533851249988,1.48940803349018,-0.882657083272934,1.28807845830917,2.15790776717568
11.1633151249989,1.25618248164654,-0.816890525221825,1.12695492267609,1.8749218530746
11.1732451249991,1.18529814809561,-0.760470741391182,0.793896349668503,1.61663813588815
11.1831751249993,1.18244353741407,-0.90025427877903,0.606618218421936,1.60518414786393
11.1931051249994,1.19065741360188,-0.870211869478226,0.450261917710304,1.54196938000923
11.2030351249996,1.25268467724323,-0.748319057822228,0.229079145044088,1.47705029284519
11.2129651249998,1.28099704161286,-0.59823214173317,-0.0255456081032753,1.41403242329054
11.2228951249999,1.29594968765974,-0.372737778425217,-0.293149572014809,1.3799839549731
11.2328251250001,1.21785632193089,-0.0980437731742859,-0.51330425798893,1.32524256783234
11.2427551250003,0.992044674083591,0.172620915770531,-0.682516393214464,1.21646177208557
11.2526851250004,0.862853221669793,0.256938934922218,-0.803496746867895,1.20670639372309
11.2626151250006,1.01838937729597,0.114899541735649,-0.786967399120331,1.29214415440328
11.2725451250008,1.16198208332062,0.368348858356476,-0.742647843360901,1.42737838804545
11.2824751250009,1.18631848722696,0.878720152974129,-0.658370754718781,1.61646302495551
11.292404125008,1.17530174821615,1.22381171107292,-0.600269311666489,1.79982569990756
11.3023341250082,1.14436413019896,1.40174540698528,-0.516617875099182,1.8818484204001
11.3122641250084,1.0357202321291,1.68954068362713,-0.407306517362595,2.02315662269603
11.3221941250085,0.850640653967857,2.48009359538555,-0.0477384227514267,2.62235251655114
11.3321241250087,0.638726302832365,3.29901602804661,0.336748896986246,3.37711087512089
11.3420541250089,0.49607996866107,3.85835775375366,0.538957016319037,3.92727571691845
11.351984125009,0.327955854088068,4.19894052386284,0.674069505482912,4.26532838869297
11.3619141250092,-0.119338236227632,4.36944708645344,0.46807531401515,4.39606687341455
11.3718441250094,-0.889361208379269,4.28342694282532,0.415987293720245,4.39451421229109
11.3817741250095,-1.38411283582449,3.86723967432976,0.424326446503401,4.12932972456868
11.3917041250097,-1.43468394219875,2.79928549647331,-0.309669856578112,3.16072977725745
11.4016341250099,-1.10931686975062,1.20298509836197,-0.786200390607119,1.815452593318
11.41156412501,-0.702157921493053,0.0612671256065369,-0.820356169939041,1.08155612565996
11.4214941250102,-0.561593561545014,-0.403025770783424,-0.596287503987551,0.91289423686213
11.4314241250104,-0.506666864231229,-0.462040548920631,-0.222335258871317,0.720850710961819
11.4413541250105,-0.704527871087194,-0.58496656358242,0.179609946459532,0.9331694029035
11.4512841250107,-0.970483504906297,-0.882500962615013,0.652411126345396,1.46502097599007
11.4612141250109,-1.18972163982689,-0.867180672883988,0.997352411001921,1.77824400221884
11.4711441250111,-1.13267766572535,-0.497340189814568,1.34835082635283,1.82985133542706
11.4810731250036,-0.690842170491815,0.0399440842866898,1.69435630425811,1.83021903612069
11.4910031250038,-0.172403691709042,0.644440348148346,1.77652854144573,1.89765119392574
11.5009331250039,0.224869003593922,0.771319665312767,1.64230862975121,1.82829913587214
11.5108631250041,0.430781626403332,0.305433402657509,1.37635738134384,1.47418520352272
11.5207931250043,0.453054255545139,-0.173245398402214,1.10694282710552,1.20855059845067
11.5307231250044,0.510297034978867,-0.468973007798195,1.12044638693333,1.31747442174163
11.5406531250046,0.735084177553654,-0.729828407764435,1.44146788179874,1.77505715601697
11.5505831250048,0.874812166392803,-0.763494921326637,1.85633835732937,2.18956911703027
11.5605131250049,1.07327850624919,-0.70469181239605,2.88268404096365,3.15569082491632
11.5704431250051,1.20476762205362,-0.866658516526222,3.35740573883057,3.67079491425884
11.5803731250053,1.21511427015066,-1.1643765181303,3.35171055078507,3.75049849776546
11.5903031250054,1.00100852876902,-1.36039038956165,2.69167509377003,3.1777027704148
11.6002331250056,0.755361955985427,-1.11297072172165,1.74859609991312,2.20609696808438
11.6101631250058,0.574366146326065,-0.898534027934074,0.937505135536194,1.41992103602898
11.620093125006,0.376023401990533,-0.791136463880539,0.369753067195416,0.950793265661024
11.6300231250061,0.0256566321104765,-0.708928120136261,0.00346725270152092,0.709400707733282
11.6399531250063,-0.297493103072047,-0.741488925218582,-0.125908387005329,0.808802135577996
11.6498831250065,-0.581887054368854,-0.715816140174866,-0.279672617018223,0.963951276407021
11.659812124999,-0.680349853634834,-0.675469182729721,-0.365493078231812,1.0260213108868
11.6697421249992,-0.471466260552406,-0.862145635485649,-0.310511709451675,1.03053047181188
11.6796721249993,0.108884510993958,-0.989457646608353,-0.339378828406334,1.05169399557884
11.6896021249995,0.665521314740181,-0.903706474900246,-0.489335936307907,1.22435847353317
11.6995321249997,1.13284891605377,-0.84929579436779,-0.484944677352905,1.49660327175506
11.7094621249998,1.54124476969242,-0.902219527959824,-0.56224559918046,1.87231290935412
11.719392125,1.8323118558526,-1.02285226464272,-0.777154017090798,2.23775822167255
11.7293221250002,1.94498945564032,-1.0412370800972,-0.916350201666355,2.38890274637025
11.7392521250003,1.91834047794342,-1.12265663444996,-0.847383170127869,2.37874890335375
11.7491821250005,1.77341519147158,-1.25988026082516,-1.00199626967311,2.39505662509216
11.7591121250007,1.5195023368299,-1.41099862575531,-1.116551848948,2.35509925584976
11.7690421250009,1.75108672142029,-2.03944800853729,-0.848915286809206,2.81892001476444
11.778972125001,2.0961358872056,-3.35239759862423,-0.278425259739161,3.96356858678559
11.7889021250012,2.1965635702014,-4.03555645465851,0.502858645766974,4.62206385008845
11.7988321250014,2.77605947881937,-3.62201212763786,2.15038489222527,5.0447629545311
11.8087621250015,3.15072245299816,-2.90539901196957,2.50234400510788,4.96287425938637
11.8186921250017,3.21048275113106,-1.22794744670391,2.31689956068993,4.14524764055199
11.8286221250019,2.22224980384111,0.461609609127045,1.26416510045528,2.59799750252371
11.838551125009,1.05695117980242,0.750591870546341,0.694229389429092,1.47054017210108
11.8484811250091,0.783703190982342,0.215103276371956,-0.318887845873833,0.873011780738329
11.8584111250093,0.589833201169968,0.151125966310501,-1.29690950810909,1.43273044747414
11.8683411250095,0.321071488559246,0.462465056777,-1.83140933811665,1.91599086460407
11.8782711250096,-0.0911759260296822,0.553933051228523,-2.246183334589,2.31527416245163
11.8882011250098,-0.392508091628552,0.771239558458328,-2.69968811810017,2.83499364964652
11.89813112501,-0.549373100101948,0.974741958975792,-2.26602936923504,2.52721621392776
11.9080611250101,-0.630245939791203,1.25117726504803,-2.33353781282902,2.72177390998944
11.9179911250103,-0.534863234460354,1.26096024155617,-2.42466900765896,2.78480146636428
11.9279211250105,-0.232223905529827,0.953232976198197,-2.2953625112772,2.49625121079349
11.9378511250106,0.0802793473005295,0.819289637804031,-2.02332431137562,2.18438127469077
11.9477811250108,0.268353869318962,1.07914107084274,-1.64006212949753,1.98150524565797
11.957711125011,0.401068707704544,1.68454131424427,-1.19416398882866,2.10346456587954
11.9676411249966,0.484544435441494,2.18197096645832,-0.910437204837799,2.41343666010468
11.9775711249968,0.420065141916275,2.362766289711,-0.701950637698174,2.50037076470924
11.9875011249969,0.163509491980076,2.36238855957985,-0.489130699038506,2.41802892893018
11.9974311249971,-0.162188587691635,2.43756094872952,-0.343684571832418,2.46700782359201
12.0073611249973,-0.333844109885395,2.55038122057915,-0.371340147703886,2.59880544967966
12.0172901250044,-0.461622180640698,2.57165573000908,-0.382030831351876,2.64054081344171
12.0272201250045,-0.656513094305992,2.26365247607231,-0.239814194440842,2.36910169120678
12.0371501250047,-0.803159801065922,1.57818689346314,0.0721102023124695,1.77226956697468
12.0470801250049,-0.814480010569096,1.08946023702621,0.304597835540772,1.39394445265727
12.057010125005,-0.70037941776216,1.13176425755024,0.575647417455912,1.45010055262274
12.0669403750071,-0.57053402736783,1.60023265063763,1.12772558569908,2.03912201920131
12.0768703750073,-0.436258713304997,1.87187323987484,2.20395649731159,2.92432134573751
12.0868003750074,-0.228745159395039,1.81674919903278,3.40994940340519,3.8704853615427
12.0967303750076,-0.261572414785624,1.41357841730118,4.29242873132229,4.52676136807735
12.1066603750078,-0.820205750316382,1.09950633823872,4.876259765625,5.06552672113496
12.1165903750079,-1.29900091096759,0.781753436923027,4.92561201989651,5.15365846495328
12.1265203750081,-1.71932084530592,-0.433193895220757,4.49214155137539,4.82939507987836
12.1364503750083,-1.67920777648687,-1.90504858732224,3.49782779216766,4.32247014337091
12.1463803750084,-1.37021648928523,-2.46113049030304,1.99824370309711,3.45364074778713
12.1563103750086,-1.08473714858294,-2.59813952386379,1.03463206529617,2.99957449941121
12.1662403750088,-0.865738603323698,-2.72469373583794,0.63102800488472,2.92773899559851
12.176170375009,-0.798141866773367,-2.41257170319557,0.435049216747284,2.57813895737776
12.1860993750015,-0.876556537002325,-1.58489949703217,0.400262815207243,1.85484988597243
12.1960293750017,-0.89627115547657,-0.465031399726868,0.407134609222412,1.08872162507131
12.2059593750018,-0.786486611813307,0.39551034450531,0.460279952287674,0.993401861106686
12.215889375002,-0.373320892006159,0.237133830785751,0.225438814759254,0.496410718368829
12.2258193750022,0.219765261411667,-0.283105224967003,-0.186560093164444,0.404042085541199
12.2357493750023,0.534176625162363,-0.274713885784149,-0.350237107872963,0.695326123228299
12.2456793750025,0.752349397391081,-0.254950296878815,-0.267965468019247,0.838352409004765
12.2556093750027,1.09180146217346,-0.636214485168457,-0.416192092448473,1.33041916769074
12.2655393750028,1.53323715403676,-1.24486636519432,-0.554212109595537,2.05125802865783
12.275469375003,1.80394131168723,-1.09885671257973,-0.328469093441963,2.13765812892052
12.2853993750032,1.54252077832818,-0.193077984452248,-0.0455234974622727,1.55522405089283
12.2953293750033,1.52518846169114,-0.0197437083721161,-0.191203951835632,1.53725359290315
12.3052593750035,1.23157856762409,-0.549714869856835,-0.434885640889406,1.41707364911797
12.3151893750037,1.44541226729751,-0.52103427708149,-0.758513824492693,1.713486668257
12.3251193750039,1.76418813899159,-0.263139322400093,-0.964479656964541,2.0277630782343
12.335049375004,1.85335276901722,-0.198900057077408,-1.23582949340343,2.2364597595072
12.3449793750042,2.14425408661366,-0.43518136382103,-1.27841359555721,2.53407768797289
12.3549083749967,2.31599031865597,-0.778750306963921,-1.11407716110349,2.68541079121928
12.3648383749969,2.50526819765568,-1.18635210871696,-1.03656530097127,2.95943705647202
12.3747683749971,2.44899488657713,-1.86768663346767,-0.690679252445698,3.15640097976694
12.3846983749972,2.17604452103376,-2.39546450436115,-0.0790549403429031,3.2372317854562
12.3946283749974,1.40934035539627,-2.31349998950958,0.737687942683697,2.80761570368707
12.4045583749976,0.33993782222271,-1.80194171011448,1.39530820727348,2.30422148304206
12.4144883749977,-0.844611297547817,-1.48573890566826,2.90654828220606,3.37176678561206
12.4244183749979,-1.55535556286573,-0.987133963108063,3.7262919563055,4.15677953849924
12.4343483749981,-1.72936022222042,-0.50813414990902,4.12639587342739,4.50289129301837
12.4442783749982,-1.72579956024885,-0.900512140989304,4.35832743644714,4.77329281330113
12.4542083749984,-1.26512404382229,-1.06667363762856,3.04732555389404,3.4676396189461
12.4641383749986,-0.665447932183743,-1.00746590137482,1.22304864943028,1.71862051999672
12.4740683749988,-0.264778881669045,-0.879936373829842,0.344434184879065,0.981341319765975
12.4839983749989,-0.0701046073436737,-0.590630176663399,-0.351308317780495,0.690779411750241
12.4939283749991,-0.0248647089768201,-0.313014317750931,-1.04995008923113,1.09589753478418
12.5038583749993,0.00774024258367717,-0.0283315140008926,-1.97861065328121,1.97882861898618
12.5137883749994,-0.140455674827099,0.234662797451019,-2.573608700037,2.58809894826392
12.5237173750065,-0.263073230590671,0.139783537387848,-3.15521603822708,3.16924836670518
12.5336473750067,-0.397794851660729,-0.0292828559875488,-3.79782854676247,3.81871704899256
12.5435773750069,-0.337072101831436,-0.667385407090187,-4.42740527272224,4.49009335452602
12.553507375007,0.309309266097844,-1.39557484030724,-4.14578231692314,4.38529501588037
12.5634373750072,1.22999163329601,-2.25443667948246,-4.02185292005539,4.77186180335644
12.5733673750074,2.02792256176472,-2.7219385278225,-3.90895254135132,5.17700002282169
12.5832973750075,2.43487824618816,-2.71875705778599,-3.59922669768333,5.12588576095273
12.5932273750077,2.69662827014923,-2.44612302660942,-3.42012414336205,4.99525485282631
12.6031573750079,2.71145768612623,-2.2729232364893,-2.89704509496689,4.57286049479948
12.613087375008,2.88140467017889,-1.8261439204216,-3.54030196666718,4.91640442870691
12.6230173750082,3.04549829900265,-0.580882283449173,-2.20227308392525,3.80295817129702
12.6329473750084,2.65700432091951,0.458236350417137,0.601583181023598,2.7625268936101
12.6428773750085,2.42101698294282,2.09340085208416,3.02621067345142,4.40472489485048
12.6528073750087,2.74423717707396,3.86433711647987,4.01040056347847,6.20864330698642
12.6627373750089,2.99969939768314,4.96001177430153,3.73937451660633,6.89803124471869
12.672667375009,3.04814942657948,5.88384027242661,3.23758810400963,7.37514528734252
12.6825963750016,2.65924848228693,5.39780508935452,4.28832047760487,7.38901852696636
12.6925263750018,2.1012926928699,4.37111822068691,4.4479021024704,6.58072477721794
12.7024563750019,1.43105194419622,2.73712900936604,4.06498022854328,5.10527659773187
12.7123863750021,0.616328835636377,1.62907813489437,3.88815750360489,4.26046072345079
12.7223163750023,-0.321081721186638,1.66417546212673,4.31496448516846,4.6358917101988
12.7322463750024,-1.03881560191512,1.65617881000042,4.18406696140766,4.61827699938189
12.7421763750026,-1.16745536953211,1.53710844933987,3.64084367036819,4.12084906990556
12.7521063750028,-1.10628019139171,1.05693334579468,2.9059872418642,3.28416287799432
12.7620363750029,-1.15260651156306,0.312314990758896,2.36160678684711,2.64636147183877
12.7719663750031,-1.22327888354659,-0.51422928750515,1.88690233826637,2.30678204891883
12.7818963750033,-1.13855477526784,-1.14534909367561,1.00171099863946,1.90040954729869
12.7918263750034,-1.03734137266874,-1.6957428252697,0.419883878231049,2.03172914634365
12.8017563750036,-1.01672218993306,-1.92683648228645,0.279775308743119,2.19651930662005
12.8116863750038,-1.03857893586159,-2.03816103637219,-0.0367520892620087,2.28781496897504
12.8216163750039,-1.02276367932558,-2.04170503377914,-0.441557167768478,2.32584989221455
12.8315463750041,-0.92271445736289,-1.92023380637169,-0.807836696505547,2.27844244368389
12.8414753749967,-0.825886174142361,-1.79200085878372,-0.986177358627319,2.20587869865735
12.8514053749968,-0.703169782161713,-1.47436724066734,-1.03800941705704,1.9353733626351
12.861335374997,-0.578276764154434,-1.06030718922615,-0.916866218447685,1.5163439629636
12.8712653749972,-0.530182245969772,-0.752685173749924,-0.725681562423706,1.17228064675922
12.8811953749973,-0.6020559284091,-0.589506341814995,-0.650861760377884,1.06471127499188
12.8911253749975,-0.776126295849681,-0.598413990139961,-0.606695401668549,1.15262771141004
12.9010553749977,-0.936902945414186,-0.78560207426548,-0.494329458475113,1.3188325753227
12.9109853749978,-1.10184390887618,-0.982401811480522,-0.470493868589401,1.54936690267605
12.920915374998,-1.25012973636389,-1.08258098781109,-0.535140684843063,1.73815462646037
12.9308453749982,-1.34430294513702,-1.19999775588512,-0.618065897226334,1.90503293298242
12.9407753749983,-1.45807835966349,-1.38907039761543,-0.714101736545563,2.1366914523599
12.9507053749985,-1.54289368450642,-1.63822259545326,-0.869768650531769,2.41263169576114
12.9606353749987,-1.63696924477816,-1.82032477140427,-1.14244178496301,2.70155951512585
12.9705653749988,-1.76485282123089,-1.89687417984009,-1.45549827575684,2.97175240649045
12.980495374999,-1.97125251710415,-1.88340453386307,-1.5862045955658,3.15421846791871
12.9904253749992,-2.2078715005517,-1.71498835086823,-1.99954207733274,3.4371572739091
13.0003553749993,-2.42838812917471,-1.50009615898132,-2.53131695866585,3.81509147168669
13.0102843750065,-2.6563669744134,-1.35891279816628,-2.98185077190399,4.21833658231283
13.0202143750066,-2.80157497376204,-1.25992762327194,-3.31473158955574,4.519257180145
13.0301443750068,-2.80461640298367,-1.32104272127152,-3.72537569761276,4.84659170218343
13.040074375007,-2.84042796760798,-1.47642253696919,-4.01181442022324,5.13249544463034
13.0500043750071,-2.86147852867842,-1.59848901093006,-3.97635807394981,5.15312041586626
13.0599343750073,-2.76430306702852,-1.60214059710503,-4.32635836958885,5.37825275357963
13.0698711666773,-2.44046876907349,-1.57910666048527,-4.45856859326363,5.32243361244166
13.0798011666775,-1.78790897727013,-1.50300397932529,-4.3375511097908,4.92645806872627
13.0897311666777,-1.21913686215878,-1.0886579990387,-4.02856669306755,4.34750739252258
13.0996611666633,-0.822681680694223,-0.844440851211548,-3.5370459446311,3.72834809444827
13.1095911666635,-0.632853797972202,-0.774019909501076,-3.12956430315971,3.28538939511338
13.1195211666636,-0.4748178845644,-0.62831314265728,-2.61139808535576,2.72756840224728
13.1294511666638,-0.46159908413887,-0.480199661850929,-1.4577482843399,1.60271503712155
13.139381166664,-0.261913161277771,-0.123210774064064,-1.23018517613411,1.263778052696
13.1493111666641,0.045094238743186,0.215986205935478,-0.553112650327385,0.595497384943388
13.1592411666643,0.385787301957607,0.54995285153389,-0.017199000120163,0.67199388901025
13.1691711666645,0.727346849441528,0.901808468699455,0.41118439078331,1.22937567766506
13.1791001666716,1.09863766126335,1.09887659311295,0.775339626073837,1.73657306595433
13.1890301666717,1.51473378628492,0.867244407534599,1.11997100830078,2.07385302399841
13.1989601666719,1.97254679828882,0.382667520046234,1.37372613430023,2.43402933310124
13.2088901666721,2.32054354548454,-0.0402130562067032,1.09860060453415,2.56777388503393
13.2188201666722,2.5467831364274,-0.587889001965523,0.959363197088242,2.78425853083912
13.2287501666724,2.60934249669313,-1.04502315223217,0.714937888383865,2.9003237471008
13.2386801666726,2.5102260518074,-0.912866138219833,0.47781809091568,2.71346080596114
13.2486101666727,2.34294919878244,0.140586944818497,0.125379506349564,2.35050965914653
13.2585401666729,2.29854895144701,1.46618640124798,-0.215159921273589,2.73483521206034
13.2684701666731,2.48096512287855,2.27187132239342,-0.416117028817535,3.38965199218524
13.2784001666732,2.67467606842518,2.70834199726582,-0.264457869529724,3.81561874535656
13.2883301666734,2.68525660514832,3.21315142035484,0.00744591750204563,4.1874814062045
13.2982601666736,2.45666964948177,3.94440479457378,0.32341293297708,4.6581274000781
13.3081901666737,2.19625761464238,4.32667528867722,0.963714768067002,4.94695994704982
13.3181201666739,1.89978828594089,4.41109738826752,1.78339624240994,5.12322924117403
13.3280501666741,1.47762253180146,4.54283398747444,2.32886296391487,5.31453776813512
13.3379801666742,0.945088097155094,3.49159173667431,2.27183156132698,4.2714895540125
13.3479091666668,0.410171945393086,1.45269102752209,2.14693035721779,2.62447370056818
13.357839166667,-0.277791202291846,1.13256824970245,2.24682185053825,2.53142000078236
13.3677691666671,-0.951412226334214,0.7940074467659,2.19004772543907,2.51633505114855
13.3776991666673,-1.46108967572451,-0.0277017688751221,1.85627696156502,2.36248060024725
13.3876291666675,-1.9105727443099,-0.841844687461853,1.51240688681602,2.57805455341739
13.3975591666676,-2.2749405258894,-1.28832988858223,1.48214637637138,3.00531299187606
13.4074891666678,-2.53434815526009,-1.40201964139938,1.36517516613007,3.20191862500566
13.417419166668,-2.70172616511583,-1.32631574034691,0.989720844402909,3.1682779335483
13.4273491666681,-2.82146398544312,-1.20493923783302,0.421132916584611,3.09675483715667
13.4372791666683,-2.89930475145578,-1.05938917636871,-0.0409608419984579,3.08706191376177
13.4472091666685,-3.0162338617444,-0.79699654340744,-0.3812009652704,3.14295790217751
13.4571391666686,-3.12072155892849,-0.315037454366684,-0.507151306048036,3.17731869557354
13.4670691666688,-3.14832334041596,0.330190513730049,-0.373936384543777,3.18760004562223
13.476999166669,-2.94994251608849,1.09095653951168,-0.210516135692596,3.15224746216358
13.4869291666691,-2.05046708643436,1.45291731476784,0.126297519207001,2.51621443034187
13.4968591666693,-1.02729614853859,1.6328279542923,0.667791788578034,2.04142361552247
13.5067891666695,-0.170291750505567,1.71044681847096,0.974042193442583,1.97569881148775
13.5167181666766,0.584528241679072,1.39621335625649,1.39185016393662,2.05629080636952
13.5266481666768,1.19243664823473,0.899012914896011,1.53595011591911,2.14225865380328
13.5365781666769,1.73436280757189,0.600291531085968,1.56666320085526,2.4130474208967
13.5465081666771,2.22247229039669,0.292708107233048,1.54803748011589,2.72423955581454
13.5564381666773,2.57712813913822,-0.0693491470813751,1.59925324201584,3.03381108209412
13.5663681666774,2.81550567269325,-0.531943427324295,1.52831131339073,3.24742536072494
13.5762981666776,2.9404127240181,-1.03761414527893,1.39555963754654,3.41617575718807
13.5862281666632,2.94358863919973,-1.57613978326321,1.20376277804375,3.5493626919511
13.5961581666634,2.89291988432407,-2.07706899404526,1.08644300065935,3.72338011178331
