Time (s),Linear Acceleration x (m/s^2),Linear Acceleration y (m/s^2),Linear Acceleration z (m/s^2),Absolute acceleration (m/s^2)
0.0111854999995558,-0.0849951267242432,0.449951430559158,-0.676469056606293,0.816878721705316
0.0211175000004005,-0.0540860138833523,0.527600700259209,-0.716714272499085,0.891609300207041
0.0310495000012452,0.00865051701664925,0.59410634636879,-0.854794515967369,1.04101433552484
0.0409815000020899,0.0256409177184105,0.60620072722435,-0.824735734462738,1.02387782964989
0.0509135000029346,0.0999457262456417,0.567699735760689,-0.702776849269867,0.908937532533015
0.0608464999968419,0.191483887284994,0.454156748056412,-0.604606776237488,0.780047296493767
0.0707784999976866,0.244564180076122,0.0850109142065048,-0.422173647880554,0.495246486787444
0.0807104999985313,0.535479896441102,0.655828385353088,-0.699882477521896,1.09849218152411
0.090642499999376,0.423504181802273,0.58598397910595,-0.980124320983887,1.21793953066521
0.100574500000221,0.180557487756014,0.475069899559021,-1.02013389408588,1.13972171064458
0.110507499994128,0.154587079435587,0.583410034775734,-1.00952704489231,1.17618420673568
0.120439499994973,-0.0804207037389279,0.443708358407021,-0.906141840219498,1.0121450644579
0.130371499995817,0.285079391151667,0.289759356379509,-0.500995284318924,0.6451565846976
0.140303499996662,0.674440145865083,0.347577501833439,-0.147631670236588,0.772964902302901
0.150235499997507,0.532363111227751,0.404280290901661,-0.229651733636856,0.706818898000072
0.160168499991414,0.287748352736235,0.435531612038612,-0.182989198565483,0.553147309836183
0.170100499992259,0.256221847012639,0.515325640439987,0.0277175563573837,0.576175679382492
0.180032499993104,0.798325103893876,0.254296285808086,0.439031170606613,0.945905883926709
0.189964499993948,1.34806343570352,-0.327286494076252,0.510529754161835,1.47818540980827
0.199896499994793,1.34795233860612,-0.831464417874813,0.213064352273941,1.5980316028025
0.209828499995638,1.15145124793053,-1.44941687911749,0.0343266642093658,1.85143932811939
0.219761500004097,0.862672396525741,-1.56123961597681,-0.153559577465057,1.79032213471602
0.22969349999039,0.396122840344906,-1.42563859194517,-0.525392206907272,1.57015784893278
0.239625499991234,0.290258416235447,-1.2659347602725,-0.616623973846436,1.43772942189547
0.249557499992079,0.0619067196361721,-0.860402872860432,-0.543938990235329,1.01980153493747
0.259489499992924,-0.234625229090452,-0.334005237221718,-0.114341132640839,0.423889597927188
0.269422500001383,-0.175599633604288,0.253399615287781,0.770323884487152,0.829726149618855
0.279354500002228,-0.0982855372689664,0.67970519810915,1.51399791419506,1.66248274798863
0.289286500003072,-0.240160751603544,0.594244340658188,1.91257804691792,2.01711633491165
0.299218500003917,-0.0945740354061127,0.188927630782127,1.16761587560177,1.18657689628748
0.309150333327125,0.872086486816406,-0.514366697072983,-0.180203000307083,1.02838760244629
0.319083333335584,1.7133534693718,-1.26703491389751,-1.37581008195877,2.53649580438507
0.329015333336429,2.11104701802135,-1.85804399013519,-1.89171459674835,3.38931130130077
0.338947333337273,2.2671017485857,-2.76761522233486,-1.56321217417717,3.90423829432012
0.348879333338118,1.98656608253717,-3.04401983052492,0.302281168699265,3.64744779727774
0.358811333324411,0.0238427527248859,-2.41416770070791,8.5784787350893,8.91173785366121
0.368743333325256,-1.5938850595057,2.27964899629355,5.68788428843021,6.3316109172776
0.378676333333715,0.880311034172774,1.91998018339276,-1.07782193899155,2.37128057253433
0.38860833333456,0.0662676644325256,-2.14922889769077,2.29789844870567,3.14704838516703
0.398540333335404,1.05937543541193,-3.20282582223415,3.26225282907486,4.69283103057536
0.408472333336249,2.24258817404509,-2.58619161576033,5.30506474077702,6.31358065566849
0.418404333337094,1.43061018705368,-3.14667910337448,5.94010218143463,6.8726304143901
0.428337333331001,1.34649579718709,-3.10496272802353,4.54914196372032,5.66996799641224
0.438269333331846,0.818462987691164,-3.3370790630579,3.03863600671291,4.58686026783157
0.44820133333269,0.802727107107639,-3.04206305980682,1.89190697014332,3.67121648122302
0.458133333333535,1.95697127759457,-1.57991635367274,0.261470527052879,2.52868327444344
0.46806533333438,3.72901617407799,-1.44342786848545,-0.839002355933189,4.08570319422705
0.477998333328287,4.72897044986487,-2.19691908091307,-1.60823281109333,5.45674149455993
0.487930333329132,4.20413372844458,-2.604889549613,-2.25861743867397,5.43705275922632
0.497862333329977,3.2688996514678,-2.09788698211312,-3.86706776618958,5.48097143117791
0.507794333330821,2.13136506915092,-0.731048283129931,-3.3686861872673,4.05280091770487
0.517726333331666,1.38718291640282,-0.431321470588446,-0.209532634019852,1.46772564850169
0.527658333332511,0.973165695816279,-0.718859835192561,1.47018882036209,1.90401315690946
0.537591333326418,1.37085281252861,-0.206442088186741,2.15293486297131,2.56066090952898
0.547523333327263,1.98531024679542,0.902085919082165,2.64747365176678,3.42991727571329
0.557455333328107,2.22721145868301,2.02960962966085,2.33942362010479,3.81479868470214
0.567387333328952,2.72810880213976,2.7710788205266,1.42993424892426,4.14320738343256
0.577319333329797,3.06995603263378,2.34748634576798,0.810114187002182,3.94862092151853
0.587252333323704,3.26776704579592,1.56964820444584,1.15882283270359,3.80591215202151
0.597184333324549,3.09884654045105,0.871375173032284,1.20875571548939,3.43849312245506
0.607116333325394,2.84594335377216,0.144461602270603,0.836151253581047,2.96974942482959
0.617048333326238,2.69763077527285,-0.290689063668251,0.157497092485428,2.71781479604054
0.626980333327083,2.69180724084377,-0.686116962432861,0.418147839903832,2.80916897391618
0.636913333335542,2.5308684772253,-0.971982073187828,1.1068270522356,2.9283289643023
0.646845333336387,2.33198844686151,-1.28661373078823,1.97491228938103,3.31569352614149
0.656777333337232,2.12673831358552,-1.49943425416946,2.70986051917076,3.75694862493617
0.666709333338076,1.86695017665625,-1.71546431422234,2.67486376404762,3.68554160629101
0.676641333324369,1.67115002095699,-2.10007194042206,2.30225871741772,3.53602032649962
0.686573333325214,1.43293387055397,-2.13662756323814,1.76678064823151,3.12089581375846
0.696506333333673,1.17593909472227,-2.21115441977978,1.08657639026642,2.72996059943954
0.706438333334518,0.855833566188812,-2.25497286915779,0.825800512433052,2.54937251495106
0.716370333335362,0.484745287299156,-2.01264729559422,0.737909844517708,2.19778025941121
0.726302333336207,0.160401404500008,-1.20904573738575,1.20206240773201,1.71244685690935
0.736234333337052,-0.206491497159004,-0.167219842672348,2.29746604710817,2.31278002667724
0.746167333330959,-0.548689268231392,0.575140902400017,3.42318282186985,3.51426060539492
0.756099333331804,-0.937360124588013,0.739033094644547,4.34194178402424,4.50302924418698
0.766031333332649,-1.37000379681587,0.474288711547852,4.55019095420837,4.77557304466714
0.775963333333493,-1.94604049265385,0.220269876122475,4.12339771360159,4.56486594785764
0.785895333334338,-2.65448621749878,-0.0750379031896591,3.40177119523287,4.31555037399891
0.795828333328245,-3.49365521907806,-0.277048094272614,3.01420195430517,4.62253132576391
0.80576033332909,-4.10219073951244,0.0499784910678864,2.93093234091997,5.04190748625574
0.815692333329935,-4.46668394386768,1.20701032161713,2.93041690886021,5.47681318200917
0.825624333330779,-4.5093347042799,2.38777921646833,2.57396596491337,5.71497067799596
0.835556333331624,-4.34966420173645,3.1536796823144,1.75183399558067,5.65103499852747
0.845488333332469,-4.0925878572464,3.420114787817,1.21365743637085,5.46986516323606
0.855421333326376,-3.91685154497623,3.29506301790476,1.27854778915644,5.27577963589299
0.865353333327221,-3.59824553489685,2.87137026339769,2.25100641041994,5.12437000797965
0.875285333328066,-3.19609977006912,3.0858417481184,3.01456711292267,5.3689000654679
0.88521733332891,-3.1343309533596,3.27376453489065,3.05086399644613,5.46345457379369
0.895149333329755,-2.89789820373058,2.95351370304823,2.39686871320009,4.78184449993892
0.905082333323662,-2.70411562979221,3.14459398627281,1.46038187026978,4.39697940463704
0.915014333324507,-2.22522048175335,3.66592705607414,0.451000421047211,4.31207940008713
0.924946333325352,-1.5142850124836,4.23519121438265,-0.669976308345795,4.54739177717965
0.934878333326196,-1.17610720217228,4.6155853369832,-1.23498866379261,4.92057447394836
0.944810333327041,-0.75661333322525,4.33067887723446,-1.37108085393906,4.60511736894698
0.954742333327886,-0.373050604462624,4.9373760330677,-0.229221378564835,4.95675209041086
0.964675333336345,-0.245757889151573,5.50888698399067,0.484952863454819,5.53564919609571
0.97460733333719,0.340160601139069,5.23464204490185,0.33359417796135,5.25627925898075
0.984539333338034,0.742079493999481,5.26141703009605,-0.283920911550522,5.32107152968413
0.994471333324327,1.02220439314842,5.63413726687431,-0.432803885936737,5.74244928293109
1.00440333332517,1.24616854012012,5.92732484579086,-0.738588706254959,6.1017726223551
1.01433633333363,1.32803423702717,5.95848407328129,-0.960380612611771,6.17976846713076
1.02426833333448,1.34010581374168,5.88688608705998,-1.04353211224079,6.12701156056705
1.03420033333532,1.48783045470715,5.59308104217053,-1.87157737076283,6.08268007222087
1.04413233333617,1.65858084619045,5.34091869771481,-2.70740234971046,6.21339926627665
1.05406433333701,1.85505255460739,4.9534909594059,-3.92795716166496,6.58840952955616
1.06399733333092,1.8401287060976,4.2933707177639,-3.77757846951485,6.00742913969854
1.07392933333176,1.31269874453545,3.43258192867041,-1.20487257957459,3.86749461847723
1.08386133333261,1.15896725893021,2.69873677611351,0.0754208958148956,2.93803907488401
1.09379333333345,1.37587907910347,2.24021683573723,-0.265593983530998,2.64237674746108
1.1037253333343,1.71556634813547,1.99883851110935,-1.89090768098831,3.24253838009195
1.11365733333514,2.15206538200378,1.86301616996527,-3.49687060296536,4.5089154651484
1.12359033332905,2.33581705749035,1.87755848765373,-4.22501676678658,5.17996466013535
1.13352233332989,2.41401830434799,1.97085315227509,-4.29398935317993,5.30566594187595
1.14345433333074,2.42793877065182,1.45231943696737,-3.13846785843372,4.22541109472783
1.15338633333158,2.37246477395296,0.926377884149552,-2.29214011073113,3.42646631022568
1.16331833333243,2.47642242103815,0.123612185418606,-1.79664939522743,3.06200865922608
1.17325133332633,2.53190752744675,-0.447064952552319,-1.40364984512329,2.92927562497228
1.18318333332718,2.6729847612977,-0.71299251973629,-1.58474805414677,3.18820204228835
1.19311533332802,2.78314191877842,-0.873216168880463,-1.96349267721176,3.51620376416386
1.20304733332887,2.85683613181114,-0.835699556171894,-1.98053614139557,3.57525241620527
1.21297933332971,2.68852052092552,-0.593053555190563,-1.99472967267036,3.39982375687232
1.22291233333817,2.28051584601402,-0.648510594964027,-2.37122721076012,3.3532129369831
1.23284433332447,1.86598363190889,-1.14874252527952,-2.68564836859703,3.46615225627574
1.24277633332531,1.40877054423094,-1.67317432701588,-2.88802810370922,3.62282391273604
1.25270833332615,1.13099827229977,-2.24962383627892,-2.45867232084274,3.51923771262721
1.262640333327,1.10730593919754,-2.43154591798782,-1.54727968096733,3.08749354742642
1.27257333333546,1.38713964700699,-2.10366797804832,-0.752446022629738,2.62978143181822
1.2825053333363,1.88023651242256,-2.48970583319664,-0.284489845633507,3.13286752844242
1.29243733333715,2.26434010863304,-3.51716745793819,-0.135626167058945,4.18522371109775
1.30236933333799,2.65168013870716,-4.56327000617981,0.243514312505722,5.28338337883117
1.31230112499907,2.96362821668386,-5.28296343505383,0.0621395301818848,6.05777650496052
1.32223412499297,3.35768406629562,-5.54212080359459,-0.28379695057869,6.4861148617527
1.33216612499382,3.54288555890322,-4.34852165579796,-0.139671855568886,5.61080982583324
1.34209812499466,3.32462420135737,-2.58132234692574,-0.0719546663761139,4.20969459854306
1.35203012499551,2.81046537280083,-1.41918940544128,0.0667921596765518,3.14917058490383
1.36196212499635,2.20846323877573,-0.288165405392647,0.0708401870727539,2.22831046086343
1.37189512500481,1.76388890773058,0.728950740695,0.247595084309578,1.92457179313972
1.38182712499111,1.25523113965988,1.37222632348537,0.358341348767281,1.89394266520251
1.39175912499195,0.674853178560734,1.78380657076836,0.12694714486599,1.91141525371111
1.40169112499279,0.0439590749144554,1.92532263815403,-0.560205359458923,2.00564944744146
1.41162312499364,-0.593668682277203,1.81507514119148,-1.19833597719669,2.25453972835521
1.4215561250021,-1.13262087464333,1.67337956428528,-1.54243350863457,2.54207205649331
1.43148812500294,-1.84448517411947,1.3786512440443,-1.59209449589252,2.79956598316645
1.44142012500379,-2.45367382854223,0.914320925474167,-1.55932202160358,3.0476192640635
1.45135212500463,-2.78139594018459,0.635943174362183,-1.59746165513992,3.2699343780473
1.46128412499093,-2.89273160398006,0.741493018269539,-1.77649053454399,3.47471245546044
1.47121712499938,-2.84673594385386,0.882289293408394,-2.17963968157768,3.6923121580929
1.48114912500023,-2.82590699225664,0.870797760486603,-2.32785724282265,3.76337061841049
1.49108112500107,-2.90425471186638,0.82892643392086,-2.15734658718109,3.71159787173567
1.50101312500192,-2.86366334080696,0.61717945933342,-1.8687730461359,3.47473609249233
1.51094512500276,-2.69174204438925,0.444188999533653,-1.59410769224167,3.15974024807477
1.52087812499667,-2.32374928146601,0.628600825667381,-1.54216336727142,2.85888397324855
1.53081012499752,-1.97406678199768,0.74987851023674,-1.62400275170803,2.66395239774603
1.54074212499836,-1.82347817480564,0.597867275476456,-1.52496787548065,2.45113136211141
1.5506741249992,-1.96978077292442,0.437798577547073,-1.22820823252201,2.36224455768657
1.56060612500005,-2.06549004524946,0.285127192139626,-0.709735620617867,2.2025601680535
1.57053912499396,-2.01075382098556,0.0879590803384781,-0.291508843302727,2.03367773605989
1.5804711249948,-1.45035097181797,0.107968252301216,-0.30428676366806,1.48585514755036
1.59040312499565,-0.778136495500803,0.500259704589844,-0.383882571458817,1.00155978670094
1.60033512499649,-0.223702484071255,0.613281705379486,0.09455590903759,0.659619641510731
1.6102681249904,0.0148719544708729,0.380571293234825,0.968191323280335,1.04040863257642
1.62020012499124,0.0106277529895306,-0.196844760775566,1.69077678501606,1.7022299920186
1.63013212499209,-0.12727034971118,-0.973380727171898,2.40642043232918,2.59894730209688
1.64006412499293,-0.0675598990917206,-1.16362164258957,2.69955655574799,2.94043963800484
1.64999612499378,0.315631531476975,-0.563689130544663,2.6371006911993,2.71508172162102
1.65992912500224,0.868222061991692,0.349417328238487,2.48314291834831,2.65365799815006
1.66986112500308,1.22878140583634,0.761000499129295,2.34803189098835,2.75722310742212
1.67979312500393,1.28629768878222,0.941968899965286,2.25585462927818,2.76238072341669
1.68972512500477,1.14020836785436,1.16924081683159,1.97188518583775,2.56037700270809
1.69965712499106,0.97640227586031,1.12030196070671,1.75361213386059,2.29860683969477
1.70959012499952,0.564788407087326,0.705947794318199,1.43515347361565,1.69617620721257
1.71952212500037,-0.276852797269821,-0.552511593103409,1.81231467068195,1.9147848436414
1.72945412500121,-0.618121445775032,-1.63357347428799,1.7327744114399,2.4603137154772
1.73938612500206,-0.239212515950203,-2.15675017118454,1.38411078929901,2.57382140129141
1.7493181250029,1.00284470066428,-2.45530841767788,0.177621454596519,2.65815467960449
1.75925112499681,2.38725179761648,-2.67037953436375,-0.935189638137817,3.70195592383975
1.76918312499765,3.00429706335068,-2.55443451046944,-0.0151600760221481,3.94349671497768
1.7791151249985,2.87451986610889,-2.3806225168705,0.837974415421486,3.82523582925112
1.78904712499934,2.47784241735935,-2.22671970784664,0.736125274300575,3.41172450852087
1.79897912500019,2.30778170496225,-1.85439006507397,0.582496699690819,3.01727050765327
1.80891212499409,2.46438797414303,-1.24086628496647,0.593788257837296,2.82232913024203
1.81884412499494,2.9070169365406,-0.144023938179016,0.728052023649216,3.00025834108369
1.82877612499578,3.35300980210304,0.727581322789192,0.989634232521057,3.5709137805957
1.83870812499663,3.72907201498747,0.665617793798447,1.59397437572479,4.10971768505466
1.84864112499054,3.86057501792908,0.271248825788498,2.05411808788776,4.38144000455757
1.85857312499138,4.06739922165871,-0.0374245190620422,2.26754672169685,4.65692013653391
1.86850512499223,4.44545124202967,-0.0106571352481842,2.12669197440147,4.92797819331401
1.87843712499307,4.7738367202878,-0.0901921319961548,1.55029099702835,5.02006512189925
1.88836912499391,4.82201456129551,-0.299378026127815,0.557111597657204,4.86331419549655
1.89830212500237,5.0051937943697,-0.185510517954826,-0.185608166456223,5.0120683817087
1.90823412500322,5.27597133457661,0.933634278774262,-0.978475406169891,5.44655493043591
1.91816612500406,4.78743588209152,2.17290573567152,-1.21727744758129,5.39655686949018
1.92809812499036,3.37399925976992,2.71271922290325,-1.58659811317921,4.61085785510469
1.9380301249912,1.72085340052843,2.29358320355415,-2.10935497999191,3.55966835103394
1.94796312499966,0.296478830426931,1.44664646834135,-2.43710428118706,2.84958996675594
1.9578951250005,-1.02859335333109,1.08617030113935,-2.32235676705837,2.76244659008928
1.96782712500135,-2.54395308405161,0.930682604312897,-2.33549078285694,3.57664432123689
1.97775912500219,-4.29959390938282,0.312317914366722,-2.82308775722981,5.15304519194787
1.98769112500304,-6.191392121315,-0.728589382767677,-2.76513249456883,6.81983405964424
1.99762412499695,-7.90240904331207,-1.4816834230721,-3.79361855149269,8.89016288761104
2.00755612499779,-9.08641349494457,-2.18438016548753,-4.40425965428352,10.3311146548103
2.01748812499864,-9.82193416714668,-2.02748577475548,-3.36369617342949,10.5780688832009
2.02742012499948,-10.2999077939987,-0.675256051719189,-1.01513686358929,10.3718163381385
2.03735312499339,-10.4331822109222,0.478099341988564,1.59284820199013,10.5648963753412
2.04728512499423,-9.90918281078339,1.3562607935071,3.66065169811249,10.6504327692551
2.05721712499508,-8.9858103954792,2.21779685676098,4.85832167744637,10.4530713612271
2.06714912499592,-7.91041505098343,2.66907121986151,5.04353340268135,9.75376012825211
2.07708112499677,-6.97695151090622,2.60160253733397,5.2181780397892,9.0926107473452
2.08701412499067,-6.33570842027664,2.57058159649372,5.1602601993084,8.56605955241749
2.09694612499152,-5.60062687397003,2.52096797168255,4.24653159677982,7.46694927652076
2.10687812499236,-4.76401573687792,2.25677205741406,3.38413745462894,6.26428386746385
2.11681012499321,-4.2070357015729,2.15317459881306,2.259061242342,5.23819319459816
2.12674212499405,-3.98602059781551,1.8695033633709,1.55726964890957,4.66995629436503
2.13667512500251,-3.95127761185169,1.85119865477085,1.18247774362564,4.52081683321895
2.14660712500336,-3.90382774919271,1.83933114588261,1.02750489413738,4.4360766976076
2.1565391250042,-3.898267339468,1.64437094271183,0.614845835566521,4.27533384061542
2.16647112499049,-3.72232286632061,1.23535996198654,0.241399374604225,3.92938613715578
2.17640312499134,-3.51461222469807,1.15932627797127,-0.308181009292603,3.71369250790644
2.1863361249998,-3.13239435553551,0.922511705160141,-1.04772222697735,3.42937955170473
2.19626812500064,-2.41290587157011,0.777162203192711,-1.83949252903461,3.1320645905701
2.20620012500149,-1.26533278942108,1.21080867290497,-2.47477087497711,3.0317677341777
2.21613212500233,0.101680814400315,1.72597526907921,-2.69929109215736,3.20554239056205
2.22606412500318,1.32361637324095,1.97545491099358,-2.71812321960926,3.61145071209053
2.23599712499708,2.3766366161406,1.95071007907391,-2.36825682520866,3.88101942895526
2.24592912499793,3.23739806950092,2.12619729995728,-2.00803559660912,4.36275923883077
2.25586112499877,3.99674965381622,2.12152303576469,-1.94554230988026,4.92544441305498
2.26579312499962,4.16203202158213,1.69769170224667,-2.43315858006477,5.11125506507893
2.27572612499353,3.93011478424072,0.648549771308899,-2.79625020682812,4.86676835717076
2.28565812499437,3.72842238932848,-0.224069396853447,-3.02299119651318,4.8051864045059
2.29559012499522,4.25459841549397,-0.209965912699699,-3.89130622923374,5.76957169392087
2.30552212499606,5.14485454022884,-0.104478633999825,-4.05731394410133,6.55303292118046
2.31545475000166,5.95122709393501,0.123347598910332,-3.6426674169302,6.97863485676877
2.32538774999557,6.35648416221142,0.108521398901939,-3.03484584152699,7.0446403087949
2.33531974999642,6.15609715819359,-0.740300770998001,-2.02256592750549,6.52198975649039
2.34525174999726,5.66830020904541,-2.67044911623001,-0.975858192443848,6.34138982826302
2.3551837499981,5.04473325133324,-4.45852707803249,-0.151545796394348,6.73429754399529
2.36511574999895,4.67097104072571,-5.75229780077934,-0.972478501796723,7.47346070362358
2.37504874999286,5.47494915962219,-5.30263112962246,-2.83410800457001,8.13173618477977
2.3849807499937,6.81382705807686,-2.54135662794113,-2.08579157799482,7.56553099224336
2.39491274999455,7.07820774435997,-0.0137409567832947,0.201678946316242,7.08109370673754
2.40484474999539,6.55913053035736,0.340939450263977,1.58809646219015,6.7572541313934
2.41477674999624,5.03218746542931,0.606103663444519,3.14324211001396,5.96407941766621
2.4247097500047,4.34015312075615,1.02521629393101,4.46185180485249,6.30841652789481
2.43464174999099,4.00666711628437,1.62939505398273,3.3375164347887,5.46327059325663
2.44457374999183,3.42091994941235,1.84551691532135,1.7859830506146,4.2776584064307
2.45450574999268,1.85725037679076,1.97514968633652,1.75773617506027,3.23113473978418
2.46443875000114,0.391789615005255,1.77037317752838,2.6266002613306,3.19166872074153
2.47437075000198,-0.97607804775238,1.57388451218605,2.81188332259655,3.36697618537759
2.48430275000283,-2.13478846773505,1.08997596144676,4.09234110474587,4.74263904552086
2.49423475000367,-3.29528842806816,0.170820558071137,5.03232429027557,6.01767340836284
2.50416675000452,-4.06199113190174,0.652627034783363,5.48141851902008,6.85358614032353
2.51409974999842,-3.76047857969999,1.17371042847633,4.63640230178833,6.08399717474661
2.52403174999927,-3.07749864846468,1.01242726385593,1.4508602643013,3.54978906449794
2.53396375000011,-2.49240490794182,0.72364029943943,-1.27627292990685,2.89216356724827
2.54389575000096,-2.2106509745121,0.997977039813995,-2.13184220194817,3.2291929451667
2.5538277500018,-1.88803669810295,1.02842933893204,-1.89582869768143,2.86644656840349
2.56376074999571,-1.50977505505085,-0.237089976668358,-0.808246001601219,1.72884180103177
2.57369274999655,-1.59040362730622,-2.3273684155941,-1.74875894486904,3.31725568609254
2.5836247499974,-1.40278182595968,-3.30800319850445,-2.87123665452003,4.59942191354716
2.59355674999824,-0.948468372523785,-3.85473364949226,-2.50516236305237,4.69408161704289
2.60348974999215,0.331347970068455,-2.18250891029835,-1.95138718664646,2.94636192159215
2.61342174999299,2.25557206258178,0.563441793322563,0.49539014339447,2.37707454198104
2.62335374999384,3.34802622020245,2.85095617175102,3.93063869476318,5.89806334428327
2.63328574999468,1.72195443123579,2.71604161083698,3.49316054463387,4.74807115423066
2.64321774999553,-0.176680052876472,-0.16928741812706,-0.705177131295204,0.746424046720289
2.65315075000399,-0.546624324023724,0.0617857736349106,-2.80458307385445,2.85802411669127
2.66308275000483,-0.0350341773033142,1.27479826211929,-1.31150942087173,1.82931543581663
2.67301474999113,0.589744908213616,2.69668323397636,0.739723066091538,2.85781205394634
2.68294674999197,0.571313315033913,2.67414981901646,0.831192229986191,2.85803370898074
2.69287874999282,-0.345614591538906,0.959435702562332,0.617032109498978,1.19192908236549
2.70281175000127,-2.60956936866045,-2.79712085723877,1.34251428186893,4.05414380318127
2.71274375000212,-4.24077384352684,-5.53921649158001,3.45561323404312,7.78513615525299
2.72267575000296,1.41182542204857,-1.59036605894566,0.755416992902756,2.25680527670315
2.73260775000381,4.38792721152306,0.926230534315109,-1.1288845038414,4.62452034694793
2.74253975000465,5.02051525354385,3.53571891903877,-0.97168912768364,6.21699778400908
2.75247274999856,4.46729205429554,4.14315574765205,-1.30462257027626,6.23092913605576
2.76240474999941,3.13064428389072,3.56492225289345,-2.30369303941727,5.27414504173825
2.77233675000025,1.76266216188669,3.56906734406948,-2.85792722225189,4.90030280810673
2.78226875000109,0.761806245446205,3.36217589735985,-2.31464253544807,4.15236626362534
2.792201749995,0.658922439515591,2.65065804541111,-2.62201779842377,3.78617804523914
2.80213374999585,0.205729604959488,2.64666439712048,-2.24972908616066,3.47971810100461
2.81206574999669,-0.786998974084854,1.94344257473946,-1.68801865339279,2.69179185687203
2.82199774999754,-1.81670359075069,1.33404283583164,-1.04410163104534,2.48399485515404
2.83192974999838,-3.21561017453671,-0.0433904331922531,0.900439050793648,3.33958410711136
2.84186274999229,-3.72131509870291,-3.0142098480463,1.51088894963264,5.02159660765534
2.85179474999313,-1.87971611022949,-3.52970154941082,3.86837228000164,5.56385026574714
2.86172674999398,0.140732540488243,-3.64858538389206,4.45487958490849,5.76002891204006
2.87165874999482,0.620453023016453,-4.07963744401932,2.03613731503487,4.60154960791385
2.88159074999567,-0.274372700750828,-4.04364139974117,0.870574981570244,4.14538501796324
2.89152375000413,-0.763966791629791,-3.90859469175339,-0.580964729189873,4.02470840430441
2.90145574999042,-0.708878711163998,-4.19687938034535,-1.30122241437435,4.45078479955835
2.91138774999126,-0.139226297736168,-4.44805062174797,-1.33760262072086,4.64690424547065
2.92131974999211,1.09200582236052,-5.24048458278179,-1.47680494487286,5.55302694245615
2.93125275000057,2.00230620235205,-5.70831212103367,-1.2441331243515,6.17591488204185
2.94118475000141,2.97589333623648,-4.94852901220322,-0.671365606784821,5.81331336771442
2.95111675000226,4.17583261996508,-2.68660380363464,-0.696037348508835,5.0139690922649
2.9610487500031,4.13069796234369,0.283543181419373,-0.339495187997818,4.15431334573037
2.97098075000395,3.09069172114134,1.9173885512352,0.43615317106247,3.66319310986566
2.98091374999785,1.96621747970581,3.51587171494961,2.08642220020294,4.53657609778377
2.9908457499987,0.954153327941895,3.15488333165646,2.11679380774498,3.91720735142957
3.00077774999954,-0.0261259442567825,0.303020256757736,2.03041990756989,2.05307302403615
3.01070975000039,-0.402561209499836,-2.49581968188286,1.90779911756516,3.16715469859781
3.02064175000123,-0.221653912067413,-3.22140125691891,-1.20384580850601,3.44612844297351
3.03057474999514,0.645589033663273,-2.10531923174858,-6.97556922912598,7.31489715158634
3.04050674999598,2.12233199805021,1.96634494900703,-2.72988840222359,3.97782556895449
3.05043874999683,2.16914977669716,5.55436721205711,-0.391541217975318,5.97574350231785
3.06037074999767,1.7938418546319,5.77723208248615,-2.36712363481522,6.49596439621072
3.07030274999852,1.59894714027643,5.90752149581909,-3.83137402296066,7.22044798366283
3.08023574999243,1.47659532219172,5.0290480953455,-4.61322393894196,6.9823701994125
3.09016774999327,0.748562009632588,3.13127344429493,-2.24155117034912,3.9229797494386
3.10009974999412,-0.51919649720192,0.996077279448509,0.735630015134811,1.34271607888918
3.11003174999496,-1.06674292713404,-0.878514330983162,2.23859247922897,2.63078394977501
3.1199637499958,-0.846248517930508,-1.78993796110153,2.08168946385384,2.87288104219649
3.12989675000426,0.053699366748333,-2.21119418084621,1.15041395187378,2.49313368836554
3.13982874999056,0.824897409975529,-2.66262495696545,-0.505521029233933,2.83294527116874
3.1497607499914,0.533615438640118,-2.43540098726749,-1.85085659265518,3.10509154965095
3.15969274999225,0.201324605047703,-0.866683659553528,-0.954880721569061,1.30517023976145
3.16962474999309,0.0388097244501114,1.96267406702042,0.260249116793275,1.98023364552217
3.17955775000155,0.506144050061703,2.48138056755066,-0.164057668447495,2.53778372581419
3.18948975000239,1.30257721424103,2.44221416294575,-1.55788886904717,3.17618247981028
3.19942175000324,1.41026918560267,2.09485680878162,-1.85337557315826,3.13245674197408
3.20935375000408,1.17797860354185,0.385908631682396,-2.62663125157356,2.90443639871013
3.21928674999799,0.612414417117834,-1.08199685096741,-2.02973812222481,2.38025323203433
3.22921874999884,0.831879570186138,-2.10352822959423,-1.02398545503616,2.48302252187098
3.23915074999968,0.594237762540579,-1.63888216137886,0.150966940317303,1.74981263979429
3.24908275000053,1.16062012061477,-2.15999946892262,0.276043560896069,2.4675568519558
3.25901475000137,0.474432845413685,-2.57965296685696,-0.519915704727173,2.67394994235928
3.26894675000221,0.461440332233906,0.81400901734829,-1.434444206357,1.71264942171118
3.27887974999612,0.136808912605047,-2.78629122912884,-1.75199070096016,3.29417772871157
3.28881174999697,-0.268030079752207,-4.01946140885353,-1.01206766009331,4.15357569926461
3.29874374999781,-0.756224785745144,-3.63546481668949,-0.526030722856522,3.75035847371307
3.30867574999866,-0.511641675308347,-2.32614400863648,-0.5001695843786,2.43369939926137
3.31860849999066,-1.12606526881456,1.51397452533245,1.06736010074615,2.16780982506558
3.3285404999915,-2.4183943605423,5.6570630300045,0.975040313154459,6.22910081960654
3.33847249999235,-3.97284740567207,6.3990951615572,0.351603017449379,7.5402626000226
3.34840449999319,-3.13978494375944,3.2016540402174,-0.380419265627861,4.50039519419792
3.35833649999404,-1.33520014598966,0.196413236260414,0.449258535504341,1.42238209386669
3.36826849999488,0.0816958352923393,-1.60605296909809,2.2926536424458,2.80041801759539
3.37820150000334,1.26262815982103,-1.72814107775688,0.872082978487015,2.3111101609336
3.38813350000419,1.86441292360425,-1.90810551166534,-1.28705037161708,2.96199271647144
3.39806549999048,2.36490987896919,-2.15442648768425,-0.81290462449193,3.30078265794674
3.40799749999132,2.97701775580645,-1.12183451592922,-0.210636734515429,3.18834051403615
3.41792949999217,4.18075977623463,-2.03930942952633,0.848529078215361,4.72837570974573
3.42786250000063,4.94231166779995,-0.53483604490757,-1.96434929430485,5.34519993701263
3.43779450000147,4.4103506988287,1.46649045646191,-2.16911557048559,5.12902036491138
3.44772650000232,2.95673639595509,3.0041216468811,-0.804087754189968,4.29110639589178
3.45765850000316,1.44019041135907,4.46065780341625,-1.05667489886284,4.80501595231855
3.46759050000401,0.861753579676151,5.1126170861721,-0.996990322172642,5.27972181127088
3.47752349999791,-0.200057878866792,5.37314328789711,-1.93390708163381,5.71407810128317
3.48745549999876,-1.42566066518426,3.81310205876827,-2.87924032330513,4.98620902913052
3.4973874999996,-0.458413082510233,1.45729395568371,-0.830859815776348,1.73901588864527
3.50731950000045,0.143063971549273,1.76872426271439,-0.540495711117983,1.85499014315627
3.51725150000129,0.406615522652865,1.0626215171814,0.190465448498726,1.15359341152374
3.5271844999952,0.987962367385626,0.545154626369476,-0.387875635027885,1.19319349406144
3.53711649999605,0.760889255851507,0.386852372288704,-0.887946182191372,1.23168812614391
3.54704849999689,0.609368054307997,-0.89468305170536,-0.416743484884501,1.15994065400503
3.55698049999774,0.533121458552778,-1.17383848249912,-1.38451322391629,1.89182243875168
3.56691249999858,-0.256510224379599,-1.43804433703423,-2.29006785750389,2.71628050879506
3.57684549999249,-1.25725193738937,-2.10680208563805,-4.58954183846712,5.20415139568002
3.58677749999333,-3.41618107348681,-4.39801365852356,-2.26313967525959,6.01120773698126
3.59670949999418,-5.91559240758419,-5.27521061182022,0.440491220355034,7.9382688948497
3.60664149999502,-5.14930251717567,-3.16614799261093,-1.48992200374603,6.22572703398989
3.61657349999587,-5.02435044229031,-1.63909733891487,-4.03413733541966,6.64868419271117
3.62650650000433,-4.12651837259531,-1.77715770184994,2.46017183929682,5.12239093153581
3.63643849999062,0.109615924581885,-2.30789718747139,10.5879837369919,10.8371492881507
3.64637049999146,2.81686515033245,-0.605803116559982,4.63097754746676,5.45414335494883
3.65630249999231,2.24265629410744,2.23763821363449,-2.69607249230146,4.15996861915588
3.66623449999315,0.83338873654604,3.96127225756645,-2.71580450624228,4.87460857924955
3.67616750000161,0.790620081648231,3.97596747994423,-0.045532560646534,4.05406841693114
3.68609950000246,1.0326311480999,3.23157833576202,-0.301338012814522,3.40591107138157
3.6960315000033,1.21612013742328,1.87580373823643,-0.197208165228367,2.24421008674788
3.70596350000415,0.929841116890311,0.927083643078804,-0.200477051138878,1.32826188380057
3.71589549999044,0.557632292211056,0.458829258084297,-0.59661947965622,0.936713865006813
3.7258284999989,0.260092813409865,-0.204906901717186,-0.499670012891293,0.599420746839463
3.73576049999974,-0.0991698372736573,-1.04491088569164,-0.209517723619938,1.0703135485327
3.74569250000059,-0.259609285220504,-1.60816556811333,-0.329674789309502,1.66201051204384
3.75562450000143,-0.173871653471142,-1.72582031786442,-0.387738517820835,1.77736554474208
3.76555650000228,0.0105768456682563,-1.70239286363125,-0.230826146900654,1.71800292255278
3.77548949999618,0.109154871627688,-1.41514079332352,-0.181152588129044,1.43085796329133
3.78542149999703,0.113507502414286,-1.03411458671093,-0.448429107964039,1.13285727098433
3.79535349999787,0.0878706412017346,-0.876266661286354,-0.650154832005501,1.0946532861355
3.80528549999872,0.141838742326945,-0.971799055337906,-0.819953589141369,1.27938872948231
3.81521749999956,0.2358652590774,-1.23887823164463,-0.939319234192371,1.57250510873775
3.82514950000041,0.238560240771621,-1.54117986559868,-0.907216850817204,1.80421417271078
3.83508249999431,0.11452129997313,-1.87415248453617,-0.998828394412994,2.12678650196165
3.84501449999516,-0.0220812790095806,-2.29090167045593,-1.19433648169041,2.58363265153487
3.854946499996,-0.224429914243519,-2.79385401785374,-1.30146653562784,3.09027574867421
3.86487849999685,-0.43874823845923,-3.26408242285252,-1.23117657154799,3.51603894037801
3.87481049999769,-0.606722262315452,-3.67770744144917,-1.23080556571484,3.92536957101804
3.8847434999916,-0.734506911188364,-3.89819074094296,-1.33435244590044,4.18519866974524
3.89467549999245,-0.741107686758041,-3.94908315181732,-1.27697050273418,4.21605882409063
3.90460749999329,-0.692967121750116,-3.80453471839428,-1.08214741677046,4.01568560608485
3.91453949999413,-0.47782920062542,-3.1890556293726,-1.06226191341877,3.39511368364941
3.92447149999498,-0.0748919420689344,-2.27061592519283,-1.09563109606504,2.52224364037078
3.93440450000344,0.31813918299973,-1.2170418047905,-0.685054230988026,1.43237655445837
3.94433650000428,0.50505939155817,-0.0134725695848465,-0.215869846343994,0.549423597684799
3.95426849999058,0.381795115470886,1.10340467691422,0.144445522427559,1.17649220149687
3.96420049999142,-0.0169918625056744,2.16765990614891,0.226983064413071,2.17957782693054
3.97413249999227,-0.712291000038385,3.27249071896076,0.04747354388237,3.3494488668718
3.98406550000072,-1.59550912365317,4.47861460268498,0.09377910643816,4.75525316296072
3.99399750000157,-2.50260742217302,5.76047630131245,0.329359039664269,6.28924546384591
4.00392950000241,-3.24033307939768,6.98871903240681,0.631464791893959,7.72921082405996
4.01386150000326,-3.53311544626951,7.92283921480179,0.668189106881619,8.70061852185375
4.0237935000041,-3.3013514059782,8.51202103614807,0.543718842566013,9.1459856442782
4.0337254999904,-2.71327061533928,9.03798393130303,0.706068831682205,9.46284968546095
4.04365849999886,-1.62897785514593,9.24955724358559,0.743414705693722,9.4212814138823
4.0535904999997,-0.443501805514097,9.209130179286,0.597696244418621,9.23915652595639
4.06352250000055,0.507685741558671,9.18148746728897,0.311354293227196,9.20078248955367
4.07345450000139,1.27273799568415,9.27773848414421,-0.0264528036117554,9.36466727314151
4.08338650000223,1.99983180686831,9.12408769011498,-0.589858636558056,9.35928611827804
4.09331949999614,2.74980255693197,8.47523210942745,-0.88041876912117,8.95355296068553
4.10325149999699,3.32803985238075,7.43346877992153,-0.651208207905293,8.17045772837397
4.11318349999783,3.42713524729013,6.21844718813896,0.0712787282466889,7.10066349660313
4.12311549999868,2.96455003023148,4.77651445269585,0.978414887487888,5.70621966722415
4.13304749999952,2.02672753706574,3.39395492970943,1.76590298116207,4.32954592460649
4.14297950000037,0.704680410325527,2.1374678081274,2.5957889431715,3.43561688041157
4.15291249999427,-0.751272632628679,0.845243089199066,2.75241772413254,2.97567635614066
4.16284449999512,-2.09912776127458,-0.401483275294304,2.28098859339953,3.12576952792643
4.17277649999596,-2.9867179942131,-1.37022248268127,1.86981472760439,3.7807672692944
4.18270849999681,-3.42520332723856,-2.24815209209919,1.0840024459362,4.23807349687706
4.19264049999765,-3.44380215078592,-3.32930168151856,-0.453748320043087,4.81143538647896
4.20257349999156,-2.91098368763924,-4.69234027504921,-2.25919777482748,5.9662264348863
4.2125054999924,-1.7815042296052,-6.2272004699707,-3.42099070072174,7.32495463383421
4.22243749999325,-0.454824500083923,-7.60616746366024,-3.61399120956659,8.43336120855409
4.23236949999409,0.929207059442997,-8.74531032264233,-3.83237798988819,9.59327886887547
4.24230149999494,2.30311094909906,-9.99278396129608,-4.08226284384728,11.0374327299084
4.25223349999578,3.28461959838867,-11.2766758131981,-3.64842049241066,12.2989070811811
4.26216650000424,3.42725599229336,-12.1338565778732,-2.87395677924156,12.9319830906964
4.27209849999053,2.89195158541203,-12.2356566023827,-2.95467496007681,12.9152925086311
4.28203049999138,1.9932602673769,-11.8922531354427,-3.63683511167765,12.594655245797
4.29196249999222,1.14884243957698,-11.5719087481499,-3.69701962530613,12.20233031582
4.30189449999307,0.657010692358017,-11.2845485043526,-3.02590427935123,11.7016577759202
4.31182770832675,0.345489534214139,-10.8716719293594,-2.92857035815716,11.2645078854138
4.32175970832759,-0.0630151872709394,-10.4023439955711,-3.06568756520748,10.8448684530283
4.33169170832844,-0.347898733243346,-9.98834592461586,-3.31022221684456,10.5283265034512
4.34162370832928,-0.325301583632827,-9.57145523607731,-3.63278649955988,10.2428372147531
4.35155570833013,-0.0321139681711793,-9.08349339544773,-3.75797041654587,9.8302199987451
4.36148770833097,0.491421638131142,-8.58668471753597,-3.8044838476181,9.40461307080607
4.37142070832488,1.18443875357509,-7.85999860346317,-2.94873360425234,8.47806010100545
4.38135270832572,2.06547469630837,-6.61967552483082,-0.558478969037533,6.95688066118656
4.39128470832657,2.45429918825626,-5.28010005354881,2.70173201233149,6.4189093269354
4.40121670832741,2.13843727648258,-3.0841138958931,4.02994605123997,5.50682646214639
4.41114870832826,0.901576114967466,0.816406375765801,4.17941053122282,4.35279579695247
4.42108170833672,-1.62591099053621,6.77991437673569,4.78329780757427,8.4552210746354
4.43101370833756,-4.59683126986027,16.7726796269417,4.38904549151659,17.936481257989
4.44094570832385,-4.63235456675291,22.950999712944,-0.595801161825657,23.4214020861285
4.4508777083247,-2.32574420526624,24.3730519151688,-0.829523142278195,24.4978132577464
4.46080970832554,-0.585517882928252,25.7355724453926,2.61406266152859,25.8746177533443
4.47074170832639,2.09516188725829,24.3284820985794,3.11628527641296,24.6165793415476
4.48067470833485,4.98916248321533,19.2002447605133,3.58807781159878,20.1597481018397
4.49060670833569,5.49150613546372,12.8561467552185,4.56391612350941,14.7060014759274
4.50053870833654,4.38259016543627,9.2165567278862,3.74851956188679,10.8721393194886
4.51047070833738,3.09267918974161,7.71679619908333,2.6866347938776,8.73679659054287
4.52040270832367,2.154632602036,7.09728194653988,2.10179979264736,7.70917732620088
4.53033470832452,1.23911679804325,6.52172589182854,1.83474195867777,6.88727791672969
4.54026770833298,0.0147990104556084,5.71477270960808,1.95423887372017,6.0396933455889
4.55019970833382,-1.35515888571739,4.6267672598362,1.56214359551668,5.06791115699997
4.56013170833467,-2.63627389490604,3.18859662294388,1.17351279258728,4.30049075655072
4.57006370833551,-3.76974875539541,1.55140606105328,0.798006649911404,4.15387542643986
4.57999570833636,-4.41865988463163,-0.253856282830238,0.203202438354492,4.43060824485064
4.5899277083372,-4.53695753574371,-2.1118991035223,-0.440277504622936,5.0237382282198
4.59986070833111,-3.73745692223311,-3.33979158639908,-0.869709301292896,5.08715896693681
4.60979270833195,-1.92573223561049,-4.10684804677963,-1.2701444631815,4.71040470447685
4.6197247083328,0.068396306745708,-5.0183541226387,-1.67970712870359,5.29244482193239
4.62965670833364,2.00670140817761,-6.21796303868294,-1.82378047585487,6.7835160585141
4.63958870833449,3.89854800581932,-7.70094030439854,-1.27852790862322,8.72569720645383
4.64952070833533,5.57943013250828,-9.26788066327572,-0.929489187598229,10.8576057555118
4.65945370832924,6.61883703410626,-10.7526647186279,-1.17878551930189,12.681417016083
4.66938570833008,6.47661754667759,-11.8325086247921,-1.8299530890584,13.6126251513022
4.67931770833093,5.17542027533054,-12.2523164892197,-2.58282917439938,13.5489940926415
4.68924970833177,3.32925285726786,-12.395894869566,-2.72116435647011,13.1204752070907
4.69918170833262,1.56148856118321,-12.1676148927212,-2.15007557451725,12.454393750015
4.70911370833346,0.0611844423227012,-11.5091611075401,-1.53245728164911,11.6108982535968
4.71904670832737,-1.12658808298409,-10.6502448892593,-0.649887175709009,10.7293648577662
4.72897870832821,-1.97220268964767,-10.0435494875908,0.141512559056282,10.236332134271
4.73891070832906,-2.68781856268644,-9.68669274687767,0.135918235480785,10.0535992940375
4.7488427083299,-3.31278037369251,-9.44685282468796,-0.364153773486614,10.0174922044582
4.75877470833075,-3.68441595196724,-9.43274875581265,-1.13009516984224,10.1896410677853
4.76870670833159,-3.68704310595989,-9.44215575635433,-2.02603420346975,10.3369921537211
4.7786397083255,-3.36444023162127,-8.98873985052109,-2.87696751058102,10.0196728604
4.78857170832634,-2.69638181000948,-8.02765932619572,-3.42348395347595,9.13422309244275
4.79850370832719,-1.92150089800358,-6.98222452998161,-3.05289619624615,7.85899486404971
4.80843570832803,-1.42394757717848,-5.40673612654209,-0.957772169709206,5.67254350125914
4.81836770832888,-1.52231557846069,-2.48794757544994,3.01053721189499,4.19173736806301
4.82829970832972,-1.96396367043257,2.55827203810215,6.70941391289234,7.44433638239351
4.83823270833818,-2.28955914974213,12.2469908452034,8.50774087429047,15.0868326910169
4.84816470832448,-2.06770175457001,26.5225632333756,9.33655445694924,28.1938468489462
4.85809670832532,0.167251636907458,30.2031141757965,4.07737691044807,30.4775504510468
4.86802870832617,1.70137310922146,26.5517759227753,-4.18966420859099,26.9340817792402
4.87796070832701,1.90851657092571,20.8572170376778,-3.43566955089569,21.2242729750926
4.88789270832785,1.89762408524752,14.1852036702633,-0.453438125252724,14.3187494729531
4.89782570833631,3.12218190103769,10.0394049811363,-0.375169635415077,10.5203813834751
4.90775770833716,5.27433762252331,8.6347529232502,0.0611490118503571,10.1183662022875
4.917689708338,6.01379288613796,8.66018129467964,1.633031437397,10.6691722551288
4.9276217083243,5.24495887219906,9.63145468533039,1.94469943374395,11.1380594725579
4.93755370832514,3.921791857481,10.1732208502293,1.53961281180382,11.0111435124248
4.94748570832599,2.30016453713179,10.119931665659,0.99962361574173,10.4260741023951
4.95741870833444,0.717144115939736,8.92829718232155,1.41376435875893,9.06793890148003
4.96735070833529,-0.471357356160879,6.35422947585583,1.85661843895912,6.63667401767821
4.97728270833613,-1.94664085552096,3.14949336826801,2.19722342848778,4.30540473031783
4.98721470833698,-3.51747940689325,0.0967030066251755,2.20526276528835,4.15273364344208
4.99714670833782,-4.59540747284889,-2.39303030848503,1.77915861904621,5.47811731259653
5.00707870832412,-5.0914548432827,-4.35011209845543,1.15388018131256,6.7954269301598
5.01701170833258,-4.60925952672958,-5.14623623728752,0.744767751395702,6.948647335866
5.02694370833342,-3.23849237591028,-5.36832927525044,0.150088962614536,6.2713091753667
5.03687570833426,-1.46406079217792,-5.27563453495503,-0.651992027163506,5.5136999694477
5.04680770833511,0.427587877213955,-5.23404913723469,-1.57897948354483,5.48372847369224
5.05673970833595,2.32272967323661,-5.77380795300007,-2.55020902007818,6.7257339717795
5.0666717083368,3.91336923569441,-6.85185617923737,-3.01627947002649,8.44750458520953
5.07660470833071,5.1800495159626,-8.22033911526203,-3.45583981364965,10.3125999134717
5.08653670833155,6.04795933663845,-9.68892404437065,-3.86677862137556,12.0584011453403
5.0964687083324,6.19692826509476,-10.9318351006508,-3.9377687895298,13.1686355265208
5.10640070833324,5.44315784811974,-11.5105866587162,-3.86710752725601,13.3069941464901
5.11633270833409,3.90798395007849,-11.5708726215363,-3.60909592062235,12.7351091531302
5.12626470833493,2.04405780717731,-11.2310920894146,-2.89710473656654,11.7774707681501
5.13619770832884,0.521491346620023,-10.5333064234257,-1.35858272284269,10.6333552771074
5.14612970832968,-0.482129060290754,-9.93761898994446,0.523216165602207,9.96305549397518
5.15606170833053,-1.21857172876596,-9.44131375730038,1.60790507465601,9.6544643171458
5.16599370833137,-1.97202537283301,-9.00133241415024,1.34487509518862,9.31244105070134
5.17592570833222,-2.63166278064251,-8.86279959619045,0.521342132985592,9.25994942172357
5.18585770833306,-3.22596793234348,-8.81869229435921,-0.54860214471817,9.40623023300452
5.19578970833391,-3.75453313082457,-8.5701218944788,-2.19235474437475,9.60988697341788
5.20572270832781,-4.06568540275097,-8.4205992347002,-4.1288689532876,10.2217341042994
5.21565470832866,-3.84558392643929,-8.38984054148197,-5.62960684418678,10.8106620179755
5.2255867083295,-3.05556252658367,-8.18964064836502,-4.63141521155834,9.89225369494076
5.23551870833035,-1.75360073179007,-7.78601553797722,-0.0799229595065117,7.9814498158927
5.24545070833119,-0.665236701518297,-6.3500270819664,4.33411411643028,7.71686004700059
5.25538270833204,-0.221736869439483,-2.42211494386196,6.53692631363869,6.97475545596332
5.26531570832594,-0.909118584617973,4.07740614652634,8.26131640255451,9.25748811437232
5.27524770832679,-3.33206799924374,15.8192256259918,10.9990383195877,19.553245779496
5.28517970832763,-4.9692609000206,27.2665769863129,0.585171216130257,27.7218722274522
5.29511170832848,-2.56189672708511,32.2574679064751,-2.77507217645645,32.4778166778813
5.30504370832932,2.74716370850802,34.5508908963204,2.90544988274574,34.7814980872291
5.31497520832636,7.3471662157774,28.4235959529877,-2.4413215854764,29.4591532360431
5.32490820833482,8.96325885415077,20.079995777607,-1.29073426365852,22.0275335581315
5.33484020833566,9.32638848781586,14.8314414525032,2.39160300314426,17.6825604115847
5.34477220833651,8.49864845395088,12.5409256982803,1.51011331647635,15.2243976939066
5.35470420833735,6.70198677957058,11.3289429044724,0.746309369802475,13.1840263880875
5.3646362083382,6.10295181512833,9.17211905837059,1.10269131660461,11.072024070531
5.37456820832449,5.80840592801571,7.05517088413239,2.79979829728603,9.55781806347051
5.38450020832534,5.01121350288391,5.31693868160248,4.00734714746475,8.33312239653905
5.39443320833379,3.39614149600267,3.70502972602844,4.39831069707871,6.67878426958549
5.40436520833464,0.809409889876843,2.19483659505844,3.35027388989925,4.08617023460585
5.41429720833548,-1.71545671284199,0.171911648511887,1.89727149814367,2.56358820526953
5.42422920833633,-3.6794279846549,-1.77108010590076,1.02165329307318,4.20935749099864
5.43416120833717,-5.17304747521877,-3.54174038171768,0.676157692372799,6.30567477256098
5.44409320833802,-6.31813169002533,-5.16014617860317,0.110026764571667,8.15830880305332
5.45402620833193,-6.89029285132885,-6.97180596113205,-0.856381157934666,9.83949199015962
5.46395820833277,-6.46617851257324,-8.70921019792557,-1.9113770288229,11.0143165459518
5.47389020833361,-4.77729037821293,-9.97084053039551,-3.05623349457979,11.4708642836421
5.48382220833446,-2.23075370192528,-10.7330554962158,-4.32390049248934,11.7843480020089
5.4937542083353,0.415593483746052,-11.2768874824047,-4.71002225518227,12.2280504937975
5.50368620833615,2.58332414120436,-11.7961892294884,-4.04992540240288,12.7367790167473
5.51361920833006,4.09023552238941,-12.1804214644432,-3.52108596950769,13.3225650715149
5.5235512083309,4.7464609336853,-12.3211358785629,-3.22373897373676,13.5916067373876
5.53348320833175,4.5588419097662,-11.8132116436958,-3.063084384799,13.0275667277274
5.54341520833259,3.68101258009672,-10.7195905280113,-2.71642898887396,11.6549758109854
5.55334720833343,2.37708144307137,-9.53404299616814,-2.22154901504517,10.0739154287707
5.56327920833428,0.874843741357327,-8.66128524899483,-1.64214432299137,8.85888546679436
5.57321120833512,-0.413160457313061,-8.18270818948746,-1.02299259781837,8.25675049477598
5.58314420832903,-1.29367453604937,-7.97070452213287,-0.68761355727911,8.10422956168728
5.59307620832988,-1.79695754349232,-7.93034587025642,-1.05962423443794,8.20013692283338
5.60300820833072,-2.02039748758078,-8.0024964183569,-2.00136977076531,8.49278728645495
5.61294020833157,-2.1220108397305,-8.34322770774365,-2.72235075652599,9.02904049325025
5.62287220833241,-2.21888970136643,-8.67401639163494,-3.73552617162466,9.70134978485337
5.63280420833326,-2.30270632177591,-8.94413202702999,-4.62912047177553,10.330958835631
5.64273720832716,-2.2465063932538,-8.40253016889095,-4.32961468398571,9.71570211183101
5.65266920832801,-2.00304295152426,-7.6673702698946,-1.5252026411891,8.07012955397897
5.66260120832885,-1.05807084850967,-6.76539340138435,0.576511197388172,6.87185760596615
5.6725332083297,-0.073378755748272,-4.6926887691021,3.33819471180439,5.7593624872351
5.68246520833054,0.535962218642235,-1.42897296667099,6.431610943079,6.61020714973607
5.69239720833139,1.19055742621422,4.34772994279861,9.74374929249287,10.7359598041152
5.70233020832529,2.58501691013575,15.8940325641632,16.7007460105419,23.1995151002128
5.71226220832614,4.02040398001671,33.7966585493088,8.90648648321629,35.1810073581871
5.72219420832698,3.43205597162247,40.5063291549683,-6.09747297406197,41.1062146940386
5.73212620832783,1.57860321521759,28.2200730872154,-2.01585332393646,28.3359873267635
5.74205820832867,0.448012055307627,16.5800208878517,2.41646741062403,16.7611790214742
5.75199020832952,0.922583772093058,8.66110164642334,1.00839239269495,8.76827792464698
5.76192220833036,2.41427002698183,4.03149497866631,1.84205068588257,5.04725690405738
5.77185520832427,3.21010034322739,2.6403143209219,3.00533435940743,5.12913623709574
5.78178720832511,3.39532025456429,3.06460758447647,1.8738592466712,4.94280970240817
5.79171920832596,3.6094803750515,4.37302324354649,0.893307494223118,5.74018110739678
5.8016512083268,3.45982644528151,5.92882290244103,0.534739273488522,6.88529491965228
5.81158320832765,2.92323360443115,6.89082787156105,0.529872928261757,7.50397020127764
5.82151520832849,1.79618512630463,6.78116275727749,0.900394904315472,7.07256391504258
5.83144720832934,0.25528183400631,5.54039821386337,1.43665796220303,5.72932520313827
5.8413802083378,-1.46859253048897,3.61052995026112,1.80770355641842,4.29656638378
5.85131220832409,-2.67249505698681,1.55994065701962,1.78353058218956,3.57164192223229
5.86124420832493,-3.3226753243804,-0.296673104166985,1.6763151589036,3.73339239217531
5.87117620832578,-3.63308997005224,-1.50870910763741,1.60608863711357,4.24912539379901
5.88110820832662,-3.39599385380745,-2.04676404476166,0.719969417452812,4.02993464861335
5.89104020832747,-2.72315884172916,-2.49193128347397,-0.779258137643337,3.77260637277828
5.90097320833593,-1.53426641017199,-3.28907985448837,-2.67596801072359,4.50919333151721
5.91090520833677,-0.0448072135448456,-4.54980562269688,-4.56025985956192,6.44194915203787
5.92083720833762,1.48699605703354,-6.11056313574314,-5.7849556696415,8.54493131682482
5.93076920832391,2.96505786091089,-8.22560979545117,-5.56928228974342,10.366731878872
5.94070120832475,4.11479645937681,-10.4216444849968,-4.80338357806206,12.1907636131524
5.9506332083256,4.73500009864569,-12.1790742659569,-4.48663435131311,13.8159315180791
5.96056520832644,4.6678989136219,-13.0620856904984,-4.31956682860851,14.5281113858798
5.9704982083349,3.74218498080969,-12.8041954135895,-4.08767970442772,13.9520784826482
5.98043020833575,2.26013391405344,-11.9197666239738,-3.54380357176065,12.6391291406758
5.99036220833659,0.83110072106123,-10.9961392700672,-2.76968776792288,11.3700034119188
6.00029420833744,-0.391974569745362,-10.3425831127167,-1.68995817482471,10.4870695687325
6.01022620832373,-1.40485612571239,-9.92022586226463,-0.886646930873394,10.0583619278848
6.02015820832457,-2.25565933227539,-9.37719845294953,-0.947522585391998,9.69111185051065
6.03009120833303,-2.88493872731924,-9.23077247858048,-1.48761703133583,9.78483706781189
6.04002320833388,-3.18977045148611,-9.59118725001812,-2.06429048895836,10.3163367345627
6.04995520833472,-3.15732629835606,-9.97252569794655,-2.69795997351408,10.8027295703067
6.05988720833557,-2.74230408757925,-10.0725095772743,-3.53238863736391,11.0205921065256
6.06981920833641,-1.76856112539768,-9.3300219476223,-4.16800933778286,10.3706036389994
6.07975120833726,-0.662684245705605,-8.32349101603031,-2.15177477538586,8.6226323003727
6.08968420833116,0.440016718804836,-7.33454090774059,1.10345730185509,7.43012268116518
6.09961620833201,1.73384503662586,-5.02600403487682,6.1341607439518,8.11756510305088
6.10954820833285,2.49072704941034,-1.81406006455421,13.7502269589901,14.0912482263358
6.1194802083337,1.32088221520185,5.33945923268795,7.37372953176499,9.19926311894579
6.12941220833454,-2.28902500659227,20.8173624157906,0.405565801262856,20.9467586287313
6.13934420833539,-5.32568845510483,31.3983926439285,-0.834986195862293,31.8577968492867
6.14927620833623,-1.95939202487469,33.4103213167191,-3.50923804879189,33.651204128183
6.15920920833014,5.42252068519592,29.2353040909767,-2.48764732092619,29.8378136777239
6.16914120833098,9.78701927304268,18.9218681788445,0.878476031720638,21.3212232708816
6.17907320833183,9.41961824834347,10.0403732800484,1.43720292270184,13.84210445663
6.18900520833267,7.76723662018776,6.21112062692642,1.35355090141296,10.0369359965546
6.19893720833352,5.67787151634693,6.32817369818688,1.68397091835737,8.66716593613168
6.20886920833436,3.69762685865164,7.6678900873661,1.13676508873701,8.58843511035163
6.21880120833521,1.99721108481288,9.23679452598095,1.02302797347307,9.50546219112987
6.22873420832912,0.109021482020617,9.70746439576149,1.67808978885412,9.85204222575073
6.23866620832996,-1.64680718511343,8.50589666247368,2.43776969432831,9.00027627466
6.2485982083308,-3.14391834050417,6.49440360724926,3.39254925906658,7.9731355952852
6.25853020833165,-4.23382530480623,3.99237476706505,4.22215075403452,7.1896376808647
6.26846220833249,-4.69289985358715,1.53456549525261,4.42291782706976,6.62875572034674
6.27839420833334,-4.44174293786287,-0.220038911104202,4.07628903597593,6.03271329944265
6.28832720832725,-3.43883611053228,-1.44862662792206,3.86745105117559,5.37413160756832
6.29825920832809,-2.18343949466944,-2.55341066300869,3.72893723666668,5.01919186282495
6.30819120832894,-1.05643633246422,-3.46574411988258,2.61196701943874,4.46652121227325
6.31812333333073,-0.108511422090232,-4.09937004268169,0.295614465773106,4.11144711603281
6.32805533333158,0.751812184453011,-5.00501662373543,-2.12304521217942,5.4884181635074
6.33798733333242,1.43677666068077,-6.74777983367443,-2.80509061217308,7.44750919428247
6.34792033332633,2.08387076765299,-8.5899685138464,-3.54885351955891,9.5249376768794
6.35785233332717,2.70362680256367,-10.2909463512898,-4.57056967020035,11.580297137933
6.36778433332802,3.22053002178669,-12.1322076630592,-4.73989684939385,13.4174848069121
6.37771633332886,3.3969975283742,-13.6267407810688,-4.71943919599056,14.8155581348418
6.38764833332971,2.90584573924542,-14.4784894824028,-4.14949588358402,15.3391301331014
6.39758033333055,1.80766057938337,-14.2684422934055,-3.46785964250565,14.7946656856659
6.4075123333314,0.526574806272984,-12.6793269538879,-3.24667350769043,13.09898858293
6.4174453333253,-0.386321774013341,-10.6044190907478,-2.60686298489571,10.9269704578768
6.42737733332615,-0.968765519857407,-9.1354289495945,-1.70537728250027,9.34360104034959
6.43730933332699,-1.35057437628508,-8.42343338012695,-0.791847485303879,8.56768950740495
6.44724133332784,-1.63675202071667,-8.2140808403492,-0.376460992991924,8.38402076025318
6.45717333332868,-2.03996431767941,-8.10836435079575,-0.543009575307369,8.37865659050041
6.46710533332953,-2.39818813741207,-8.15291487157345,-1.86487543836236,8.70052226283886
6.47703833333799,-2.3232227396965,-8.23476711988449,-3.61500307023525,9.28854136098796
6.48697033332428,-1.59655036658049,-8.22037887632847,-3.52642593920231,9.08621383460099
6.49690233332512,-0.64805897064507,-7.95716354012489,0.0111621885001659,7.98351781035018
6.50683433332597,-0.196129938662052,-7.18482412040234,9.28931012392044,11.7452733970873
6.51676633332681,1.04603822886944,-5.99519464731216,15.6528407657146,16.7942841131212
6.52669833332766,0.0841180443763733,-0.561518644094467,1.13363829016686,1.26787807220877
6.5366303333285,-4.04851476162672,11.2911079108715,-2.33428991094232,12.2200040514879
6.54656333333696,-5.19899332523346,20.1962150359154,-3.08045470833778,21.0809353346306
6.55649533333781,-1.17768463477492,28.1325870466232,-3.23522202819586,28.3424779545922
6.5664273333241,5.3219538384676,31.8534299826622,-2.32922797635198,32.3788433592827
6.57635933332495,9.79377982378006,28.0499775838852,-1.54254489809275,29.7506102535019
6.58629133332579,9.10632092535496,18.7842141973972,0.883194734752178,20.8938224542268
6.59622333332663,6.72096918046475,9.91400559425354,1.76183434233069,12.1063204111515
6.60615633333509,4.08422575414181,5.00386823058128,1.46304863914847,6.62269647502663
6.61608833333594,1.87701864346862,3.97556343734264,1.64411878153682,4.69376503460352
6.62602033333678,0.318990464508533,4.62578960537911,1.44291272878647,4.85609735616727
6.63595233333763,-0.264477750062943,5.565958147645,0.876690584421158,5.64078230057027
6.64588433332392,-0.46014692813158,6.75435268878937,0.798894549608231,6.81698231928313
6.65581633332477,-0.776079006493092,7.26806859076023,1.20665598034859,7.40831548459066
6.66574833332561,-1.05116974532604,6.65003602266312,1.65913106918335,6.93402140470704
6.67568133333407,-1.0968853238225,5.41221321344376,1.91796742558479,5.84583683718565
6.68561333333491,-0.964039580896497,3.96321938037872,2.21250951200724,4.64022397210168
6.69554533333576,-0.673836640119553,2.42170329988003,2.37163768529892,3.45591782317627
6.7054773333366,-0.210731971040368,0.739233654141426,2.53012500375509,2.64431595949889
6.71540933333745,0.101667000353336,-1.0133329975605,2.88827427148819,3.06256562545955
6.72534133332374,0.0110390315204859,-2.84648889899254,3.34645068794489,4.39333052696374
6.7352743333322,-0.381130287051201,-4.60203704595566,3.111795784235,5.56841793248664
6.74520633333304,-0.995617907568812,-5.88897822082043,1.0996311762929,6.07293242404724
6.75513833333389,-1.46144080102444,-6.62531341016293,-1.58749361425638,6.9678348841723
6.76507033333473,-1.42983952403069,-7.20381704628468,-3.40775114268065,8.09643063030019
6.77500233333558,-0.782323540449143,-8.11715856313706,-4.27294054627419,9.20642787258142
6.78493433333642,0.325929355323315,-9.02525337338448,-4.87980025470257,10.265177978206
6.79486633333727,1.74652881681919,-10.3360494339466,-4.88558490514755,11.5651727472776
6.80479933333118,3.11346048653126,-11.6199366080761,-4.19600375980139,12.7406047944815
6.81473133333202,3.93670167267323,-11.7973680281639,-3.97220333486795,13.0557999289629
6.82466333333287,3.74515068858862,-10.7789596474171,-4.29967343151569,12.194232914725
6.83459533333371,2.86799495816231,-9.29123678147793,-4.19544944375753,10.5902914050869
6.84452733333455,1.80089125782251,-8.09193425953388,-3.03251309484243,8.82715951218231
6.8544593333354,0.594993880614638,-7.54435303866863,-1.32210589125752,7.68239835453326
6.86439233332931,-0.681929552033544,-7.48053594231606,-0.385103031545878,7.52141943007601
6.87432433333015,-1.90672439932823,-7.69847862660885,-0.00460015073418617,7.93109023153398
6.884256333331,-2.92037899374962,-8.39303019762039,-0.167896804064512,8.88818084323879
6.89418833333184,-3.52464750856161,-9.30237982034683,-1.76515482991934,10.1031273353944
6.90412033333269,-3.57249381244183,-10.1492168605328,-3.71514190077782,11.3829519134965
6.91405233333353,-3.13188067764044,-10.8319693350792,-4.79440313190222,12.2526135026886
6.92398533332744,-2.59020192861557,-10.8728764557838,-4.11423658847809,11.9103119673548
6.93391733332828,-2.3001424638927,-10.3644984769821,0.322884417772293,10.621569487642
6.94384933332913,-1.40685426548123,-9.02153162062168,7.18998604238033,11.6216681675138
6.95378133332997,-0.166858338564634,-6.21881556272507,16.6318482685089,17.7572488166113
6.96371333333082,0.0086261048913002,-1.62127385616302,15.2992116880417,15.3848783421214
6.97364533333166,-2.78174852728844,8.99864912688732,0.895366591215134,9.46126272283809
6.98357733333251,-7.10368932545185,19.8773102331162,-4.65856529563665,21.6164773899401
6.99351033332641,-6.93528483688831,26.7484177851677,-3.58474080562592,27.8644288730663
7.00344233332726,-1.78063577190042,28.643572883606,-2.24771004259586,28.7867527124232
7.0133743333281,5.06369167864323,24.2580582332611,-4.07903459608555,25.1143959891675
7.02330633332895,7.9977584195137,18.2790603733063,-2.00154635667801,20.052291033341
7.03323833332979,7.38617006778717,11.130401866436,0.0438374528288841,13.3582661936685
7.04317033333064,5.83685438632965,6.23516554713249,0.0741684222221375,8.54117436200776
7.05310233333148,4.19160928487778,6.12738440573216,0.462963531911373,7.43833067862427
7.06303533332539,3.78696880549192,7.73187733769417,0.745213601589203,8.64166669172742
7.07296733332623,3.94773156791925,10.1239592278004,-0.147998875379562,10.867430176708
7.08289933332708,3.94098212689161,11.4797484433651,-0.885116422176361,12.1696095059878
7.09283133332792,3.23227240025997,10.6755574858189,-0.580415090918541,11.169243223257
7.10276333332877,1.77558553174138,8.32426167905331,0.30081731826067,8.51683788391268
7.11269533332961,0.491898844018579,5.42783580422401,1.06190552562475,5.55256781459852
7.12262833333807,-0.570826388150454,2.74026253223419,1.77412358164787,3.3139698239324
7.13256033332436,-1.41265806555748,0.481709997653961,1.97863725811243,2.47843755846603
7.14249233332521,-2.07502933904529,-1.18623516440392,1.97311368584633,3.09936739358876
7.15242433332605,-2.4708441773057,-2.31854672133923,2.20971571236849,4.04519138942109
7.1623563333269,-2.66871658623219,-3.24637062191963,2.28227381139994,4.78223213391985
7.17228833332774,-2.73210303515196,-4.03172302007675,1.79235841602087,5.18957861456826
7.1822213333362,-2.80722396880388,-5.02970356822014,0.644159389436245,5.79597840870653
7.19215333333705,-2.88637685000897,-6.11318444252014,-1.07013694345951,6.84451520754354
7.20208533333789,-2.84974813699722,-7.12809267997742,-2.71190002799034,8.14157057701282
7.21201733332418,-2.45929680347443,-8.31106919109821,-3.57511979699135,9.37568629112776
7.22194933332503,-1.57513610869646,-9.6895912116766,-3.53132122814655,10.432615263043
7.23188133332587,-0.224632337540388,-11.1522306919098,-3.05179984331131,11.5644364919471
7.24181333332672,1.06095389127731,-12.0913414728642,-2.71582584857941,12.4379207190202
7.25174633333518,1.81192729264498,-11.5641997790337,-1.87100434362888,11.8538792931729
7.26167833333602,2.06826542615891,-10.0950774908066,-1.43654043316841,10.4044202065546
7.27161033333687,1.97135338157415,-8.66213192582131,-1.79386582821608,9.06293099747636
7.28154233333771,1.94643401026726,-7.56978901147842,-1.71351134419441,8.00165183954585
7.291474333324,1.8584056404233,-6.89646809577942,-1.33022168040276,7.26528963218082
7.30140633332485,1.5091533498466,-6.62550169050694,-0.905272066891193,6.85524135237826
7.31133933333331,0.70161588460207,-6.79126265287399,-0.717772618532181,6.86503538241149
7.32127208332531,-0.460460338890553,-7.55333845496178,-1.43866326481104,7.70290189009391
7.33120408332616,-1.51699051916599,-8.89681168019772,-2.61871207505465,9.39745557266322
7.341136083327,-2.0277243411541,-10.4252066087723,-4.11284407407045,11.3891213540341
7.35106808332785,-1.93666886776686,-11.3154510390759,-5.37428232550621,12.6756865311252
7.36100008332869,-1.62447009041905,-11.6055618131161,-3.65819206684828,12.2764138603534
7.37093208332954,-1.48934736862779,-11.4439763474464,0.483528481721878,11.5506082098731
7.38086508333799,-0.716554789692164,-9.94772063970566,5.40235363841057,11.3426637756175
7.39079708332429,0.358301880061626,-6.68439192295075,14.1060826563835,15.6138093854635
7.40072908332513,1.18496836513281,-1.15486426770687,12.5552385127544,12.6638017836408
7.41066108332598,0.176753727793694,9.37660086750984,0.162183635830879,9.37966893022385
7.42059308332682,-3.70910406589508,19.8182860994339,-5.89835481584072,21.0074393114488
7.43052508332767,-4.49573700428009,28.2525532007217,-5.08844469666481,29.0570246756663
7.44045808333613,-1.69344033792615,31.6771668362618,-1.9233781465888,31.7806548460735
7.45039008333697,2.88269251942635,26.3265458536148,-2.79822101086378,26.6313156560032
7.46032208333781,4.52814870536327,18.405830347538,-1.32672212183476,19.0010240005322
7.47025408332411,2.72088369011879,10.9432430183887,-0.0625321707129479,11.2765990478975
7.48018608332495,0.98701774969697,6.53150360584259,-0.159249795377255,6.60757927600414
7.4901180833258,0.541444129496813,6.98728412568569,0.547058333605528,7.02955005806155
7.50005008332664,1.51680662423372,8.8725673699379,1.37477804839611,9.10566684827409
7.5099830833351,3.14747373998165,10.8592851877213,1.31683711141348,11.3826502059113
7.51991508333595,3.30879198789597,12.5010804319382,-0.28311604231596,12.9346538832073
7.52984708333679,2.62686192423105,11.3789974093437,-0.579304704666138,11.6926292830857
7.53977908333764,1.22146522343159,8.32175731658936,0.622395175695419,8.43391948520913
7.54971108332393,-0.257062749713659,5.38601008594036,1.18214679121971,5.52020442910702
7.55964308332477,-1.54347153559327,2.71878161609173,1.64009575098753,3.53043792320335
7.56957608333323,-2.50070970833302,0.522156942486763,1.76507355362177,3.10510572567716
7.57950808333408,-3.186659732759,-1.12740691244602,1.6106763625145,3.74434572968118
7.58944008333492,-3.47463130295277,-2.32356246292591,1.721738961339,4.52066259098932
7.59937208333577,-3.45096206635237,-3.11490591824055,2.02867743730545,5.07220959814608
7.60930408333661,-3.36217648208141,-3.66563118696213,1.95578809350729,5.34473477005133
7.61923608333746,-3.25920876860619,-4.3685711735487,1.27135454446077,5.59671316697945
7.62916808332375,-2.93974935740233,-5.45651815116406,-0.15440128415823,6.19996422367742
7.63910108333221,-2.2698122254014,-6.76690783023834,-1.82434239327908,7.36690669748422
7.64903308333305,-1.07899459809065,-8.29573311388493,-2.61455792069435,8.76466373343446
7.6589650833339,0.482024724036455,-9.88598339796066,-3.15658340960741,10.3888899503819
7.66889708333474,1.9952085596323,-11.3320337426662,-3.66944766461849,12.0772799961221
7.67882908333559,3.31052627205849,-12.8546241402626,-3.36152861058712,13.6930939011316
7.68876108333643,4.37813049405813,-13.7885589659214,-2.01326417684555,14.6063553847448
7.69869408333034,4.38456740140915,-12.825278134346,-2.90271455526352,13.8613831312093
7.70862608333118,3.21073418140411,-10.5038692009449,-3.34164515376091,11.480708798147
7.71855808333203,2.34429668962955,-8.58950015187264,-3.3740600708127,9.52152935139522
7.72849008333287,1.60004042342305,-7.3964225757122,-3.2219380313158,8.22484534521666
7.73842208333372,0.73083982989192,-6.93742140948772,-2.33877457916737,7.35743224242905
7.74835408333456,-0.251682288050652,-7.01495315015316,-2.03885510087013,7.30957192968961
7.75828708332847,-1.51004198044539,-7.25487727224827,-2.47105935484171,7.81150467920507
7.76821908332931,-2.68487010419369,-8.06863544404507,-2.66457558810711,8.91130565461817
7.77815108333016,-3.44555836200714,-9.53046216130257,-3.31242164701223,10.6617877769918
7.788083083331,-3.65980151295662,-10.9622640109062,-3.98884363353252,12.226048130603
7.79801508333185,-3.36530854314566,-11.7650469589233,-3.42992670804262,12.7085022232671
7.80794708333269,-3.32418712198734,-12.2711234736443,-0.964025913029909,12.7499034227088
7.81787908333354,-2.9661884200573,-12.115133793354,2.03660567700863,12.6381368586424
7.82781208332744,-1.51630975708365,-9.79830732285977,8.85302948355675,13.2921838954086
7.83774408332829,0.410273394584656,-4.59490402758122,14.1181478011608,14.852729197572
7.84767608332913,2.16066795185208,4.09914901793003,7.1559634333849,8.52521679075079
7.85760808332998,-1.45238872647285,14.923144505024,-8.90544158577919,17.4389381777773
7.86754008333082,-3.61967587262392,26.9278594779968,-11.2580185174942,29.4101113637783
7.87747208333167,-0.637380419969559,33.4574943137169,-1.26837158739567,33.4875939123113
7.88740508332558,5.17978639125824,31.7057129430771,-1.47030781120062,32.1596676809252
7.89733708332642,7.7829334706068,28.2312459468842,-1.52126746505499,29.3239075810437
7.90726908332726,5.39776649773121,18.7477404356003,-0.169817760586739,19.5100613191369
7.91720108332811,0.571678181290627,10.0471057641506,0.820699986219406,10.0967667421989
7.92713308332895,-1.95065160691738,6.05438308775425,1.10624291539192,6.45634336545919
7.9370650833298,-2.80028770923615,5.4568303924799,2.23170504391193,6.52679987358378
7.94699708333064,-2.03351513117552,7.63025156021118,2.38831423670054,8.24984651699966
7.95693008332455,0.226813495159149,11.1602051246166,1.47110975682735,11.2590313394065
7.9668620833254,1.52735529363155,12.6683014440537,0.679864827096462,12.7781411736418
7.97679408332624,1.27346173480153,11.3920133113861,0.290418629944325,11.46664794338
7.98672608332709,0.425782257020474,8.6040357452631,0.467898581922054,8.62726206389509
7.99665808332793,-0.461127506196499,5.46960363507271,1.02795337557793,5.58443288473715
8.00659008332877,-0.992822426855564,2.84833778858185,1.24637377738953,3.26376655447275
8.01652308333723,-1.17130020618439,0.841962216496468,1.0964681249857,1.8119290538332
8.02645508333808,-1.04290675252676,-0.634388399720192,1.12974609106779,1.6632586589128
8.03638708332437,-0.624141154289246,-1.73107228696346,1.06996328115463,2.12861101805605
8.04631908332522,-0.288682006895542,-2.42101098954678,1.16232151418924,2.70104106132407
8.05625108332606,-0.376374892741442,-3.3217616969347,0.794162105619907,3.43605184493937
8.06618308332691,-0.698025840371847,-4.35501381933689,-0.759126758873463,4.47545068976074
8.07611508332775,-0.94088263347745,-5.43275799036026,-2.67133058398962,6.12667337147665
8.08604808333621,-0.694103820472956,-6.65739825189114,-4.08864420264959,7.84345223825188
8.09598008333705,0.0187635688483715,-8.07650462687016,-5.13816824913025,9.57241098238794
8.1059120833379,0.98958942823112,-9.5918555867672,-5.55747091412544,11.1296210086065
8.11584408332419,2.08400145292282,-11.1025176644325,-5.11793922185898,12.4017040128953
8.12577608332504,3.10512937366962,-12.451547498703,-4.254446387887,13.5197328970319
8.13570808332588,3.71310677736998,-12.8918521928787,-3.76902370065451,13.9352988686744
8.14564108333434,3.72302073150873,-12.2497928309441,-3.49741234749556,13.272158863452
8.15557308333518,2.98555030524731,-11.0945444011688,-3.35248179852963,11.9683566250401
8.16550508333603,1.69556697025895,-9.99123327970505,-3.31555750876665,10.6626737450818
8.17543708333687,0.321646050587297,-9.54444460809231,-2.90378313392401,9.98157480298887
8.18536908333772,-1.00386467434466,-9.71240529298783,-2.25264509260654,10.020627264443
8.19530108332401,-2.19812331497669,-9.96139844655991,-1.13664317429066,10.2641688813382
8.20523308332486,-3.10886399030685,-10.1772846651077,-0.51019149273634,10.6537530393812
8.21516608333332,-3.91194953173399,-10.5085539901257,-1.30626008301973,11.2889047966005
8.22509808333416,-4.49497862040997,-11.065778439045,-2.60605080664158,12.2248838876601
8.23503008333501,-4.68027513027191,-11.3682432103157,-4.02197483450174,12.935154059898
8.24496208333585,-4.4904774338007,-10.9072323560715,-3.68415399670601,12.3573903363231
8.25489408333669,-3.80134213864803,-9.94605301380158,-0.958756548464298,10.6908085160869
8.26482608333754,-2.3724541027844,-8.84428848087788,4.71096044093371,10.2977242864067
8.27475908333145,-1.03862337470055,-6.7396405094862,13.9657401251793,15.5416662541577
8.28469108333229,0.785029778033495,-1.4837730717659,15.921453666687,16.009701469464
8.29462308333314,1.41843628406525,11.4662940001488,-0.974919129610062,11.5947542836871
8.30455508333398,-0.963204817771912,22.9437257766724,-11.2419363355637,25.5680161257964
8.31448708333483,-0.438801521211863,34.5185511159897,-2.24102872163057,34.594004215375
8.32442258333322,3.85808147281408,34.604729719162,2.47046323120594,34.9066655549318
8.33435458333406,7.40867249250412,25.0638466501236,-4.55450532227755,26.5297635823004
8.34428758332797,6.60636492311955,15.4750491571426,-2.7446301099658,17.0485834705977
8.35421958332881,4.52390479624271,6.7029673576355,1.40859191179276,8.20850882785435
8.36415158332966,3.1809005177021,2.29853053271771,2.31142919808626,4.55456646137904
8.3740835833305,2.03331267133355,2.99808965921402,1.51904903143644,3.92815630849889
8.38401558333135,1.35680049151182,4.95177538633347,1.53554081082344,5.35899921927303
8.39394758333219,1.65996795192361,7.04911609232426,0.580367143750191,7.26514675048089
8.40387958333304,1.88250786334276,8.99763580441475,-1.03419030815363,9.25045055756272
8.41381258332694,1.11886281475425,9.49091042518616,-1.06034227252007,9.6152774495612
8.42374458332779,0.281150646954775,8.43281406819821,-0.651819534301758,8.46263951142798
8.43367658332863,-0.451756612211466,6.59067567408085,0.0913168439269066,6.6067714235913
8.44360858332948,-1.16046853154898,4.34538111627102,0.907177674472332,4.58824537175392
8.45354058333032,-1.58172752872109,2.24372107207775,1.15744902938604,2.97923387467761
8.46347258333117,-1.65903342068195,0.438544682264328,1.41769368767738,2.22588605309488
8.47340558332508,-1.61954921990633,-0.88819673538208,1.78996281176806,2.57211974525977
8.48333758332592,-1.59689929917455,-1.68091311693192,1.37521483540535,2.6956951092245
8.49326958332676,-1.61522271886468,-2.29650037944317,0.442493014633656,2.84229810053745
8.50320158332761,-1.6762293510139,-3.29934171795845,-0.453290775418282,3.7283874712992
8.51313358332845,-1.84706204205751,-4.77069413423538,-1.81786835610867,5.42916255694916
8.5230655833293,-2.02792943224311,-6.48911480069161,-3.20009020239115,7.51409914641486
8.53299758333014,-2.08362182244659,-8.27811428368092,-4.42149256825447,9.61344124254094
8.54293058332405,-1.92299413070083,-9.92274835109711,-5.30029633641243,11.4127990659477
8.5528625833249,-1.57581190064549,-11.3163901019096,-5.43584181189537,12.6527563909515
8.56279458332574,-1.08792841270566,-12.1467999744415,-5.26038441181183,13.2815654954639
8.57272658332659,-0.525705910027027,-12.1142964720726,-3.65429577469826,12.6643761522661
8.58265858332743,0.31145281881094,-10.7181942129135,-1.94583467066288,10.8978421079419
8.59259058332827,1.08267235055566,-8.82284849524498,-1.84045322656631,9.0775604138933
8.60252258332912,1.4859400498867,-7.25717288911343,-1.43792768508196,7.54600637435892
8.61245558333758,1.42128855586052,-6.40248303830624,-0.964806370139122,6.62892914026694
8.62238758332387,0.890203207433224,-6.34696431040764,-1.22302584528923,6.52473830328529
8.63231958332472,0.0570542067289352,-6.89532204151154,-1.85564546227455,7.14087818971311
8.64225158332556,-0.753402773290873,-8.00572466611862,-2.40809361308813,8.39393578828778
8.65218358332641,-1.51351361855865,-9.62595771789551,-3.34952983170748,10.3038408156266
8.66211558332725,-1.90327805042267,-11.2957038223743,-3.74242734789848,12.050774026357
8.67204858333571,-1.95696630746126,-12.434896967411,0.918952504992485,12.6214441893588
8.68198058333655,-2.70825955152512,-12.3199828076363,9.63997700214386,15.8759504528309
8.6919125833374,-0.703482754379511,-11.8512583065033,7.15220601260662,13.860059966679
8.70184458332369,-0.860896085500717,-8.01476153790951,-1.42366661846638,8.18561978228402
8.71177658332454,-3.59653054654598,-0.245921026468277,-2.8709226590395,4.60843856828796
8.72170858332538,-3.29599711060524,9.18983904540539,-1.75399395704269,9.91933634044727
8.73164058332623,0.386511041074991,16.1007737374306,-5.79336279630661,17.1157050166926
8.74157358333468,6.8854431706667,30.6010405898094,-2.09550935804844,31.4360330243069
8.75150558333553,12.9542887616158,41.8379225921631,1.81110108107328,43.8349797681375
8.76143758333637,14.3407010149956,35.6289794683456,-1.39188173890114,38.4319817122716
8.77136958333722,10.3535583364964,22.5214726066589,-0.291081411838532,24.7890626484351
8.78130158333806,5.63590546488762,12.091707508564,1.53061102330685,13.4281640959024
8.79123358332436,2.14251044690609,6.6345204359293,2.90745898604393,7.55384208104676
8.8011655833252,0.0506056049466133,4.98975714504719,1.71057487249374,5.27506433024361
8.81109858333366,-0.764732776880264,5.21273428201675,1.11557477921247,5.38534325767288
8.82103058333451,-0.819638570398092,5.9058725810051,1.1167839834094,6.06616392745463
8.83096258333535,-0.968352706432343,6.05630506753922,0.930016606450081,6.20334336655879
8.84089458333619,-1.35335998982191,4.87910911381245,0.689239375591278,5.1100234758173
8.85082658333704,-1.7954352208972,2.71072766125202,0.898116536736488,3.37316548652369
8.86075858333788,-2.05848508089781,0.481487803459168,1.43454419374466,2.5548206154181
8.87069058332418,-2.16279736161232,-1.11618727505207,2.07189157694578,3.19629491239533
8.88062358333264,-2.0597049562633,-2.00294910371304,2.47648732513189,3.79304351286133
8.89055558333348,-1.79373792037368,-2.63778949320316,2.96555107355118,4.35544742905709
8.90048758333433,-1.62044808313251,-3.41194096505642,2.85090588569641,4.73232052044833
8.91041958333517,-1.68064853042364,-4.15825793623924,1.38675051480532,4.69454636119664
8.92035158333601,-1.84721933215857,-4.82477210819721,-0.576714388132095,5.19838865828794
8.93028358333686,-1.71970734626055,-5.7317284655571,-2.07666992157698,6.33424522124322
8.9402155833377,-0.920921116322279,-6.88981396436691,-3.09075662523508,7.60726026125754
8.95014858333161,0.138792726695538,-8.33018140017986,-3.58286063343287,9.06907249389314
8.96008058333246,0.989320821762085,-10.2216486597061,-3.75935240596533,10.9358853104393
8.9700125833333,1.69935304239392,-12.0592952227592,-3.28499557435513,12.6137067492427
8.97994458333415,2.49860704958439,-12.7968887329102,-3.1443030872941,13.4123092842166
8.98987658333499,3.22782354623079,-12.3761230945587,-3.03563316911459,13.1454302491284
8.99980858333584,3.47872727751732,-11.3575860750675,-2.1508082306385,12.0715484080914
9.00974058333668,2.73756959706545,-10.3938117384911,-0.588507052659989,10.7643834149942
9.01967358333059,1.40953389823437,-10.1072853076458,0.638211894035339,10.2250338152063
9.02960558333143,0.0947058901190758,-10.2388511681557,1.03760362029076,10.2917279269376
9.03953758333228,-1.13144551120698,-10.1124367046356,0.273901415169239,10.179222319771
9.04946958333312,-2.26972042411566,-9.64228022038937,-2.28591808855534,10.1661507051462
9.05940158333397,-3.47107297986746,-9.25416075646877,-4.13908286958933,10.7154022761379
9.06933358333481,-4.26648755908012,-9.69417718291283,-3.36790587633848,11.1140801390564
9.07926558333566,-4.17401325881481,-9.82111555695534,-1.87610077679157,10.8349643097017
9.08919858332956,-3.39198968052864,-8.14837860167027,0.720822526216507,8.855577504786
9.09913058333041,-2.35254243314266,-6.95866434395313,8.56958570480347,11.2869510720794
9.10906258333125,-0.201672806739807,-5.80703417122364,5.84949606657028,8.24493311189112
9.1189945833321,-0.227942738682032,-0.750110059976578,-1.34120830625296,1.55353233469981
9.12892658333294,-0.551365027204156,7.18672855854034,-3.35653508841991,7.95106273193447
9.13885858333379,1.18547926560044,16.1411429142952,-3.37497574478388,16.5327649516574
9.14879058333463,5.53271965026856,24.1740524554253,-7.39273064374924,25.87756296905
9.15872258333548,11.3183968663216,30.9730427885056,-3.85172701120377,33.2004712040506
9.16865558332938,14.0152309584618,29.8275217866898,3.13847136676312,33.1052527142517
9.17858758333023,11.4923948013783,20.5983233785629,1.37372350305319,23.6273820077773
9.18851958333107,6.96125992298126,13.8048305976391,0.332739168852568,15.4642556529342
9.19845158333192,2.73714655101299,8.72897027850151,3.62514535814524,9.84015102690843
9.20838358333276,-0.528816921114922,5.40221330523491,4.77731932193041,7.23092911284602
9.21831558333361,-3.3900639000535,4.43179711639881,2.81275338828564,6.2485950861517
9.22824758333445,-6.18000291466713,5.19050843060017,1.82894064366817,8.27519411684626
9.23818058332836,-7.87830915927887,6.68172851622105,1.08749995797873,10.3872954772772
9.2481125833292,-6.94484094142914,6.96495653271675,-0.0920120778679848,9.8361527756973
9.25804458333005,-4.83915450453758,6.38059164762497,0.209784941375256,8.01082865964288
9.26797658333089,-3.1497997623682,4.79582078933716,0.476505975723267,5.75744678927676
9.27790858333174,-1.87196679532528,2.38033717274666,0.330921269506216,3.04627208656278
9.28784058333258,-0.788960349485278,0.0995219492912293,0.871686244904995,1.17991523467037
9.29777258333343,0.228099297881126,-1.20694249391556,1.63906868755817,2.04823964316841
9.30770458333427,0.714108607023954,-1.95362023830414,2.3194202953577,3.11549252039777
9.31763375000446,0.370010637044907,-2.82204052090645,2.19927083104849,3.59688931737759
9.32756574999075,-0.561368663012982,-3.97154581546783,0.870840445160866,4.10447000489723
9.3374977499916,-1.57840879529715,-5.22616065859795,-0.639077428132296,5.496594355935
9.34742974999244,-1.62687154188752,-6.3821323889494,-1.90626597762108,6.85654248300964
9.35736174999329,-0.638792376369238,-7.51285993516445,-3.22881026387215,8.20221529988044
9.36729374999413,0.318223748356104,-8.99635058641434,-4.12927328824997,9.90386228280412
9.37722574999498,0.866215297579765,-10.8675473034382,-4.04014418005943,11.6265505774454
9.38715875000344,1.27913938120008,-12.3653478455544,-3.62542982518673,12.9491994468942
9.39709075000428,1.7262345930934,-12.9218986952305,-3.6868478089571,13.5479961074176
9.40702274999057,2.13192844837904,-12.4448758256435,-3.02237139165401,12.9828649401349
9.41695474999142,2.17888612166047,-11.2788357746601,-1.30710252061486,11.5614963634607
9.42688674999226,1.43386109277606,-10.1046131300926,0.125128514617682,10.2066067469746
9.43681874999311,0.191895969808102,-9.3053449434042,0.875293538421393,9.3483906292671
9.44675074999395,-1.25638289496303,-8.97810084164143,1.789637414217,9.24054082701892
9.4566827499948,-2.76197967588902,-8.78892528891564,2.36875968575478,9.51234786543374
9.46661575000326,-4.06209199637175,-8.58929432988167,1.39954495355487,9.60392079045562
9.4765477500041,-5.01119303762913,-8.56487460315228,-0.260626773834229,9.92658344765936
9.48647974999039,-5.51593814134598,-8.77163624167442,-1.45106170088053,10.4629229183424
9.49641174999124,-5.4508726644516,-8.88341980218887,-1.38898283556104,10.5145819462055
9.50634374999208,-4.8051932913065,-8.61074834883213,1.53368607401848,9.97933177459144
9.51627574999293,-4.01098645448685,-8.35585652410984,7.9994611287117,12.2433544806705
9.52620774999377,-3.1497442138195,-7.71727040827274,9.21397518217564,12.4247531092026
9.53614075000223,-3.63371796101332,-3.18295581400394,1.4856339481473,5.05393135707046
9.54607275000308,-4.51316872358322,6.4481345897913,-1.11735934942961,7.94956750593078
9.55600475000392,-2.64881851136684,15.1751805496216,-5.64461781620979,16.4062199945888
9.56593675000477,1.50243577614427,23.6592027783394,-9.99144494891167,25.7263320653208
9.57586874999106,6.682503272295,34.4537499332428,-5.41035613775253,35.5104025319902
9.5858007499919,12.6084107530117,35.5206633067131,-2.45422960639,37.7718517738596
9.59573274999275,15.7157544672489,26.50062915802,-3.95161207258701,31.0625743012064
9.60566474999359,14.0551604247093,14.8955690360069,-3.68495214164257,20.8087573813757
9.61559775000205,12.1714904272556,6.10877271831036,-1.79706352427602,13.7365104977586
9.6255297500029,9.54043868064881,2.05199964165688,0.564271367043257,9.77492071191602
9.63546175000374,6.2255667579174,2.13854661941528,0.651872013062239,6.6148318362686
9.64539375000459,3.89037418305874,4.11442837715149,-0.143513476252556,5.66428532762832
9.65532574999088,2.82678553640842,6.61738750934601,-0.247388969957829,7.20012050039117
9.66525774999172,2.1265990036726,7.45052510797978,0.426251203715801,7.75979624704976
9.67518974999257,0.548272654116154,6.84237433433533,1.79388132333756,7.09483612472069
9.68512174999341,-1.50641392931342,4.80807070612907,3.01160315930843,5.86997277938515
9.69505475000187,-3.71418003380299,2.19705268979073,3.33151953041554,5.45171498033028
9.70498675000272,-5.66580461740494,-0.262114305496216,2.91763840377331,6.37829598928474
9.71491875000356,-6.86586376905441,-2.17874447286129,2.60152155339718,7.65865047942702
9.72485075000441,-6.9439094799757,-3.43350666582584,2.65973935604095,8.1903028229999
9.7347827499907,-5.87282528758049,-3.88653607070446,2.51034591972828,7.47643472010745
9.74471474999155,-4.2931049618125,-3.89042271494865,1.84637104734778,6.08072570986488
9.75464674999239,-3.11559208899736,-4.46802646458149,0.839743782877922,5.51138314528265
9.76457874999323,-2.75301297068596,-5.86438424706459,-0.350518797487021,6.4879077090674
9.77451074999408,-2.5118615180254,-7.65587639808655,-1.73656399190426,8.24242356388544
9.78444375000254,-1.97168754994869,-9.5491153639555,-3.08448110103607,10.2267873592542
9.79437575000338,-0.924364103078842,-10.9899049687386,-3.84643820464611,11.6802203352131
9.80430775000423,0.762162779420614,-11.6930653953552,-4.32889664590359,12.4919180518167
9.81423974999052,2.68699966013432,-11.8838951253891,-4.42058215677738,12.9610368848186
9.82417174999137,4.3958224144578,-11.6369227695465,-3.758796043396,12.9949903401153
9.83410374999221,5.46129357218742,-10.7919813966751,-3.05006555914879,12.473792120398
9.84403574999305,5.2168203163147,-9.74107828438282,-2.32896119713783,11.2928242974449
9.8539677499939,3.94863203912973,-8.73322003483772,-1.72259440898895,9.7379750798209
9.86390075000236,2.45372703820467,-8.02456264078617,-1.73489124968648,8.56879394093221
9.8738327500032,1.16224615819752,-7.59498407900334,-1.70702181190252,7.8707383871445
9.88376475000405,0.185458331555128,-7.15977347910404,-1.70607266262174,7.36256986350351
9.89369674999034,-0.575466153770685,-6.86119125902653,-1.61967771247029,7.07322152059093
9.90362874999119,-1.16246813312173,-7.00979649066925,-0.393595527559519,7.11642441401841
9.91356074999203,-1.79855310246348,-7.40549862384796,3.23763195812702,8.28000385425517
9.92349274999287,-2.05017297148705,-7.44312194824219,7.96468949139118,11.0923195159397
9.93342474999372,-2.0724969099462,-6.80011709153652,9.43814807474613,11.815899245558
9.94335775000218,-2.22703662693501,-3.83763405203819,3.97226034522057,5.95533202309367
9.95328975000302,-3.25203365027905,1.99622831404209,1.05577895924449,3.95920693512147
9.96322175000387,-3.9179356187582,7.73268308401108,-3.60287360608578,9.38750794470582
9.97315375000471,-2.04332617431879,11.8062721681595,-8.19962418437004,14.5188526105963
9.98308574999101,3.03023121893406,20.3259460401535,-3.12295461058617,20.7865155609885
9.99301774999185,8.76990780472756,29.2100230693817,0.686914522647858,30.5058778299963
10.0029497499927,12.8829071223736,31.7562445807457,-0.921425438672304,34.2823189214918
10.0128817499935,13.8746229636669,26.3016133260727,-3.11565143823624,29.8996205631901
10.0228137499944,11.367421091795,17.4518079972267,-0.728229632824659,20.8402059262469
10.0327467500028,8.14279275655747,11.0865535962582,0.930937542915344,13.7870732654816
10.0426787500037,5.19424889445305,7.62506800353527,0.964023427963257,9.27637994078111
10.0526107500045,2.65375297665596,6.37137409687042,1.11107417732477,6.99080099637371
10.0625427499908,1.10987476721406,6.38003616213799,1.07357671424747,6.56424027519265
10.0724747499917,0.289796924740076,7.24496390283108,0.397194781154394,7.26162846096455
10.0824067499925,-0.21576021105051,7.74549082517624,-0.432486966848373,7.76055575123687
10.0923387499934,-0.951372830718756,6.82234060406685,-0.371145143061876,6.89834692503555
10.1022707499942,-1.83147497311234,4.74090958714485,0.617820606529713,5.11978774877158
10.1122037500027,-2.70732692062855,2.20301743447781,1.57724300667644,3.8302219744922
10.1221357500035,-3.40907495230436,-0.154817313551903,2.48261199116707,4.22008563061118
10.1320677500044,-3.87602219223976,-1.80481327772141,2.99067538976669,5.21776180839359
10.1419997499906,-3.98861471503973,-3.01181599795818,2.76707669377327,5.71286236310762
10.1519317499915,-3.56104437947273,-3.9772281396389,1.31065806627274,5.49701785643777
10.1618637499923,-2.55771012067795,-4.72332934856415,-0.80692993953824,5.4316532587923
10.1717957499932,-1.13402376785874,-5.61823576390743,-2.39546523526311,6.21199136334487
10.181727749994,0.363787299245596,-7.25372303187847,-3.72559496819973,8.16265256453879
10.1916597499949,1.82206519514322,-9.66522294044495,-4.6671855533123,10.8866467313357
10.2015927500033,3.02924362421036,-12.6613526129723,-4.59622462123633,13.8062104754961
10.2115247500042,3.82334053337574,-15.223989597559,-4.20021053910256,16.2489864506537
10.2214567499905,4.1547759193182,-16.7759938287735,-3.9810709297657,17.7354181690373
10.2313887499913,3.65176188379526,-16.5459164178371,-3.77851840943098,17.3602971268467
10.2413207499922,2.14499756008387,-14.1301369321346,-3.30180924296379,14.6684603326512
10.251252749993,0.593652894794941,-11.2259664201736,-1.9279006755352,11.4057681390204
10.2611847499938,-0.578690747022629,-9.1887619882822,-0.983584703207016,9.25935574035107
10.2711167499947,-1.54837427973747,-7.77816857457161,-0.660258235931397,7.95822280554655
10.2810497500031,-2.36165502637625,-6.88486488103867,0.400277871787548,7.28965028436965
10.290981750004,-3.11962929904461,-6.31439298033714,0.751248512864113,7.08293865578893
10.3009137500048,-3.91661765635014,-5.96899035036564,0.177542517185211,7.14144670316878
10.3108457499911,-4.77837357491255,-5.86206991910935,-0.722862619757652,7.59731848253001
10.3207775833289,-5.4939947104454,-6.0324425804615,-1.58338623762131,8.31152533187836
10.3307095833297,-5.88421800255776,-6.81176883816719,-2.54628933906555,9.35456068474032
10.3406415833306,-5.87048406243324,-7.78710838258267,-2.72645842552185,10.125967392574
10.3505735833314,-5.54753415584564,-8.83864767193794,-0.903653557598591,10.4744172931523
10.3605055833323,-4.89272874087095,-9.90475880742073,1.21220381855965,11.1136168578305
10.3704375833331,-3.62553507506847,-9.92716182947159,3.65265241473913,11.1819012798347
10.380370583327,-2.04488299548626,-7.51939478337765,8.85840892195702,11.7980614086435
10.3903025833279,-0.183570411801338,-2.83118381202221,12.6233749473095,12.9382724864607
10.4002345833287,1.82838808178902,5.95732515513897,3.41203159689903,7.1045538635383
10.4101665833296,1.4169110378623,17.1272957146168,-6.07998395204544,18.2295940778251
10.4200985833304,0.984677547812462,21.4082492852211,-12.9322938752174,25.0305204142128
10.4300305833312,4.50690460145474,25.6599492359161,-5.52699288725853,26.6325521543132
10.4399625833321,8.78014101684093,25.7510395002365,1.47330480158329,27.246606002523
10.4498945833329,10.043936573267,20.066956486702,-2.24514954686165,22.5522526816009
10.4598265833338,7.12810203552246,13.0996528816223,-2.40488261461258,15.1060982599042
10.4697595833277,3.90248084306717,7.13525551915169,-0.629120643138886,8.15702279252145
10.4796915833285,1.90268631219864,4.51674195706844,-0.285361811667681,4.90944034212952
10.4896235833294,0.800484115183354,3.93252559125423,-0.0125950486958027,4.01318962669122
10.4995555833302,0.983379758298397,4.93288829505444,0.718498842716217,5.08101006370787
10.5094875833311,2.15366021007299,7.09321637749672,0.994593694657087,7.47938416555073
10.5194195833319,2.94657101154327,8.79306511759758,0.991760280132294,9.32651399728894
10.5293515833328,2.75890170156956,9.19894140601158,1.55159711882472,9.72828428908731
10.5392835833336,1.73516621500254,8.32705197036266,2.26629190921783,8.80265160781643
10.5492155833344,0.677624320238829,6.65065992057324,2.73619462430477,7.22337961902686
10.5591485833284,-0.147819950580597,4.81882315099239,2.71793523162603,5.53444479795796
10.5690805833292,-0.904967719316483,3.1228984773159,2.75133131146431,4.25925879209878
10.57901258333,-1.67118744313717,1.5496945810318,2.92326400995255,3.70673619731193
10.5889445833309,-2.12371223330498,-0.146579171419144,2.82925130724907,3.54066407089881
10.5988765833317,-2.11670083701611,-1.79894968986511,1.94268711447716,3.38978991160899
10.6088085833326,-1.58974552318454,-3.05683780431747,0.457640665322542,3.47577087405753
10.6187405833334,-0.573121420294046,-3.93708525002003,-1.01428214684129,4.1058344708142
10.6286725833343,0.828130481690169,-5.0821489995718,-1.9840873016417,5.51820994246222
10.6386045833351,2.56611724734306,-6.72500726759434,-2.6015683311224,7.65368135329706
10.648537583329,4.30233099102974,-8.64868449926376,-2.7012387996912,10.0302784895105
10.6584695833299,5.78481299757958,-10.4197593426704,-2.66710100054741,12.212652206759
10.6684015833307,6.64411103904247,-11.709346382618,-2.51828819274902,13.6965243631001
10.6783335833316,6.55157768189907,-12.4612410128117,-2.06505121171475,14.22920005511
10.6882655833324,4.87294848740101,-12.5305223321915,-1.56980081677437,13.5360219962424
10.6981975833332,2.01577935665846,-11.5136330580711,-0.909156664609909,11.7240640757138
10.7081295833341,-0.399123923778534,-10.2576698470116,-0.27905485868454,10.2692240315896
10.7180615833349,-2.09189227044582,-9.33873663783074,0.308911326527596,9.57514707299946
10.7279935833358,-3.34715440034866,-8.70262097060681,0.90939640045166,9.36835397233544
10.7379255833366,-4.33453511595726,-8.56503715574741,0.946411468237639,9.64591886851699
10.7478585833305,-5.1466724395752,-8.75385485887528,0.674660366624594,10.1771007021072
10.7577905833314,-5.80073204219341,-9.29502402305603,-0.235317831784487,10.9590756132291
10.7677225833322,-6.24335281848908,-9.8399634718895,-1.35857950687408,11.7324368236421
10.7776545833331,-6.37032510638237,-9.87143084764481,-2.70019390225411,12.0547598918688
10.7875865833339,-6.31961980640888,-9.5401527518034,-2.83284266710281,11.788855186228
10.7975185833348,-5.39404942274094,-9.21650702655315,-0.360002542734146,10.6850069151241
10.8074505833356,-3.83551531344652,-8.08229980230331,4.72614068984985,10.1178630962397
10.8173825833364,-1.44228488400579,-4.013945145607,12.1424870681763,12.8698070505894
10.8273145833373,1.96588170334697,5.64214035093784,10.2186443603039,11.8371927066178
10.8372465833381,4.24744083881378,21.5089734220505,-7.05068957805634,23.0301740088044
10.847179583332,4.4186250936985,36.5338080239296,-11.7831347358227,38.6404663617115
10.8571115833329,7.96254122436047,39.8592154598236,-0.768664590865374,40.6540276611744
10.8670435833337,13.0140262556076,29.8981561517716,-0.119193152189255,32.6079565085715
10.8769755833346,12.8142257273197,19.4825576877594,-3.32857779622078,23.5553362360436
10.8869075833354,8.68529742479324,10.3073244023323,-2.21611958295107,13.6596674080292
10.8968395833363,5.81820001423359,3.06522914350033,-0.498557141572237,6.59512246521656
10.9067715833371,3.13955105513334,-1.6296160787344,1.52060468316078,3.85028154740781
10.9167035833379,0.259959606528282,-2.52556797623634,2.00934508055449,3.23782955888129
10.9266355833242,-1.13506442606449,-1.12249817490578,1.48125175237656,2.17772361834612
10.9365675833251,-1.95174284353852,0.836055943965912,1.48488024204969,2.59097645724042
10.9464995833259,-3.53063359558582,2.09255651414394,1.29473697513342,4.30354623374063
10.9564325833344,-4.8817026463151,2.46212393224239,0.798154876828194,5.52540733269188
10.9663645833352,-4.75848280906677,2.48453689455986,0.298697117865086,5.37636514690307
10.9762965833361,-3.25441142052412,2.03370253443718,0.361350910663605,3.85457055626842
10.9862285833369,-1.63807407617569,0.916038252711296,1.14429586395621,2.19814143851948
10.9961605833378,-0.497697454690933,-0.533668355941773,1.90449427127838,2.03951050496721
11.0060925833241,0.168834258913994,-2.06764912962914,2.21393360137939,3.03400394224462
11.0160245833249,0.420243774354458,-3.71982201218605,1.76798108160496,4.13998040298992
11.0259565833258,0.0273184838891029,-5.17979925513268,0.463738580346108,5.20058843727673
11.0358885833266,-0.186735655814409,-6.84062484741211,-0.606236687600613,6.869973903122
11.0458205833274,-0.252539782226086,-8.16099630832672,-1.13155551195145,8.24293970393796
11.0557535833359,-0.418415642380714,-9.1128516805172,-0.978227484226227,9.17475157221107
11.0656855833367,-0.430512654483318,-9.67639930844307,-0.970195164084435,9.73444006497141
11.0756175833376,-0.364180524498224,-9.66218414247036,-1.45527812808752,9.77794785665783
11.0855495833239,-0.373827991783619,-9.45792569696903,-1.69972945690155,9.61671389215084
11.0954815833247,-0.0199737963080406,-9.24634712219238,-1.43493478775024,9.35704931598152
11.1054135833256,0.562142834365368,-8.8944733786583,-0.837316603660584,8.95146693814233
11.1153455833264,0.971173987984657,-8.69950498938561,0.0131445407867432,8.75355577775315
11.1252775833273,0.986387566030026,-8.71062230050564,0.476933407187462,8.77925775720113
11.1352095833281,0.485010312348604,-8.57864596545696,-0.159794024974108,8.59383126051198
11.145141583329,-0.40729818508029,-8.29487064957619,-1.02139820829034,8.3674383896548
11.1550735833298,-1.50344792917371,-8.34496842384339,-2.04531758978963,8.72250982881548
11.1650065833237,-2.7515906354785,-9.14465527117253,-2.21469607830048,9.80310408865865
11.1749385833245,-3.71424786150456,-10.0696257305145,-1.25581907719374,10.8060205942787
11.1848705833254,-4.72327993959189,-9.32445072054863,4.92942031145096,11.5565539515305
11.1948025833262,-2.82580437362194,-9.15447742402554,5.04975367069244,10.8300341365873
11.2047345833271,-3.25455204606056,-6.92589245438576,-0.998319832831621,7.71730119917964
11.2146665833279,-4.91064724087715,-2.02130760669708,-2.12599878698587,5.72014087304599
11.2245985833288,-4.5290383592248,3.6604564011097,-3.20786085963249,6.64842092669505
11.2345305833296,0.103211980909109,10.4077187561989,-2.25402927473187,10.6495028237231
11.2444625833305,7.12258694171906,17.8201486694813,-5.59501354694367,19.9898254103243
11.2543945833313,14.2700432610512,33.3497418236733,2.63151718497276,36.369826739658
11.2643265833322,17.0040083420277,39.8099304485321,4.39663313090801,43.5120356326903
11.2742595833261,12.7995995020866,30.5492974090576,-1.94286399275064,33.179271241171
11.2841915833269,5.80152258574963,17.919154894352,-1.7335382039845,18.9145164132054
11.2941235833277,1.86007268160582,9.12294806778431,1.08668894916773,9.37384364604984
11.3040555833286,-0.0746487709879875,3.64936657190323,1.7747574198246,4.05872057603837
11.3139875833294,-0.859248924851418,1.6918731379509,1.50695201933384,2.42314832776544
11.3239198333322,-0.720205352604389,1.35580090999603,2.30267094612122,2.76752332304117
11.333851833333,-0.332385412305594,2.33395413458347,2.20505211934447,3.22801437631223
11.3437838333339,-0.851981859058142,3.06111270368099,1.44987076923251,3.49262212675179
11.3537158333347,-1.6396335285902,2.57915712296963,1.21999991118908,3.29072170752002
11.3636478333356,-1.82823137640953,1.26995676755905,0.968693599104881,2.42767119810408
11.3735798333364,-1.58279216051102,0.103303928375244,1.69250288307667,2.3195837415829
11.3835118333373,-1.28594071626663,-0.863009269237518,2.57011440396309,3.00065269133246
11.3934438333381,-1.04579059928656,-1.35011449277401,2.80831827521324,3.28681284165242
11.403376833332,-1.00006756559014,-1.48576463341713,2.63336812108755,3.18469140464484
11.4133088333328,-1.40743255510926,-1.59368610799313,2.50831430464983,3.28821265414855
11.4232408333337,-1.63781460598111,-2.34501706659794,2.2246139793098,3.62359615342842
11.4331728333345,-1.94287217885256,-3.25838021814823,1.37218831658363,4.03419071506884
11.4431048333354,-2.08121145397425,-3.99091881036758,-0.303081652522087,4.51117862151289
11.4530368333362,-1.60412017196417,-5.09474507153034,-1.84205419421196,5.65002588705565
11.4629688333371,-0.720025550723076,-6.64472733557224,-3.05617414534092,7.34922026914729
11.4729008333379,0.260140724033117,-8.60306686162949,-3.99376991271973,9.48844722479465
11.4828328333242,1.12417676433921,-10.5539178586006,-4.23862674593926,11.4286881248445
11.4927648333251,1.9723772290349,-11.9797426843643,-4.21621436834335,12.8522749082418
11.5026968333259,2.70036288678646,-12.8626348257065,-4.69116089165211,13.9551540618933
11.5126298333344,3.12316218674183,-13.0566828632355,-4.14390302181244,14.0500192772105
11.5225618333352,2.87532473534346,-12.1951096701622,-2.61438601255417,12.7993439841111
11.532493833336,1.73353367239237,-10.7190841591358,-1.19964838474989,10.9244249482976
11.5424258333369,0.446785163283348,-9.59748937904835,-1.20878436684608,9.68362427031365
11.5523578333377,-0.767941582649946,-8.96410611569882,-1.4128899076581,9.10720542312701
11.562289833324,-2.07900997728109,-8.49257495105267,-0.965776423215866,8.79652407968745
11.5722218333249,-3.53346598684788,-8.14725125849247,-0.227352316081524,8.88339878789901
11.5821538333257,-4.81986512482166,-7.8316162186861,1.19544014364481,9.2733159956564
11.5920858333266,-5.58383600950241,-7.38967313468456,3.47047305554152,9.89093912870433
11.6020178333274,-6.07355961620808,-6.60481599569321,6.23066377580166,10.9239595310348
11.6119498333283,-6.7451842546463,-5.02597538352013,10.187557053566,13.2115198938101
11.6218818333291,-7.72703116536141,-1.63916399717331,7.39871176064015,10.8228833938618
11.6318138333299,-9.30198104023934,5.25239945411682,-1.94352677464485,10.8578012333225
11.6417468333239,-9.3277555668354,13.1206490635872,-4.93468280553818,16.8377418365918
11.6516788333247,-5.44896354854107,15.8486417984962,-7.89742019891739,18.5267346396671
11.6616108333255,0.429704569280148,19.1959435486794,-4.07340518921614,19.6280800022946
11.6715428333264,8.15424745202065,19.5857259607315,-1.17438519716263,21.2478609160775
11.6814748333272,14.096865105629,18.5936826753616,-2.93892285346985,23.5177360470133
11.6914068333281,17.0886210608482,15.4173885941505,-2.29370248675346,23.1295895320701
11.7013388333289,16.7340622758865,9.29738395929337,-0.633672408163548,19.1538959342647
11.7112708333298,13.3222633981705,5.37688609063625,-0.0196440133452416,14.3664188985694
11.7212028333306,9.30907780587673,5.1046993714571,-0.367327934503555,10.623173493843
11.7311348333315,6.72899097561836,6.04971759438515,-0.462514758110046,9.06048135714854
11.7410668333323,4.47239141106606,8.03717683911324,0.411711078733206,9.20695402884729
11.7509988333331,2.06742342710495,9.71201937675476,1.36349116802216,10.0228073994603
11.760930833334,-0.695009700357914,9.84756836056709,1.72855856895447,10.0222530314266
11.7708638333279,-3.33939105212688,7.95102396368981,1.8143076941371,8.81260614569831
11.7807958333287,-5.33686365365982,4.95817399442196,1.99877331465483,7.55385317438019
11.7907278333296,-6.45168560385704,2.25116516232491,2.2322339245677,7.18852279770138
11.8006598333304,-6.54199701905251,0.35758121073246,2.29456173509359,6.9419451795384
11.8105918333313,-5.77048322618008,-0.348496976494789,2.85156866759062,6.44603526768479
11.8205238333321,-4.49633897513151,-0.21204108953476,3.50253363132477,5.70348730528077
11.830455833333,-2.90220292389393,-0.0618845915794373,3.39516062557697,4.46695950145081
11.8403878333338,-1.8445788757503,-0.473934955000877,2.70291198045015,3.30648132377863
11.8503198333347,-1.66311375394464,-1.80445718228817,1.5836169102788,2.92059165235268
11.8602518333355,-1.56679637119174,-3.30866802692413,0.0159614369273186,3.6609274437823
11.8701838333363,-1.08486929565668,-4.8340294200182,-1.58577774882317,5.20187205637766
11.8801158333372,-0.235567361712456,-7.21859237551689,-2.72324538052082,7.71878444240431
11.890047833338,0.690295090377331,-9.76678615272045,-3.43381247520447,10.3758222411354
11.8999798333243,1.58311931222677,-11.6330788099766,-3.5029066836834,12.2517404718866
11.9099128333328,2.56768839418888,-12.9331756353378,-3.29579158097506,13.5912581407821
11.9198448333336,3.34246785700321,-13.3156326556206,-4.06508050829172,14.3179273616478
11.9297768333345,3.71416278451681,-12.9572860443592,-4.43650003194809,14.1904474685864
11.9397088333353,3.80076648026705,-12.0042998206615,-4.85607342302799,13.4955729449214
11.9496408333362,3.19315277338028,-10.9672154331207,-4.46675703406334,12.2649075574169
11.959572833337,1.58876231387258,-10.1858169221878,-3.25968093127012,10.8120558561263
11.9695048333379,-0.249616759121418,-9.56802584409714,-2.25112598598003,9.83244604788145
11.9794368333241,-1.81080258071423,-9.30803992509842,-1.91196876704693,9.67337778646686
11.989368833325,-3.18570809841156,-9.40288293242455,-1.79283320993185,10.0884683895922
11.9993008333258,-4.35016881644726,-9.68521574020386,-1.6473360657692,10.7443514824985
12.0092328333267,-5.27223204016686,-9.85712972760201,-1.54125938773155,11.2842774537144
12.0191648333275,-5.65962586462498,-9.66427276790142,-0.420433808863163,11.2074215432261
12.0290968333284,-5.36857602775097,-9.28329860150814,1.44172194331884,10.8203421227035
12.0390288333292,-5.06025877833366,-8.8031445479393,5.86579108715057,11.7264264767111
12.0489618333377,-4.89351431429386,-7.1539999383688,11.5224132370949,14.4184674729584
12.058893833324,-4.69438738524914,-2.97205960929394,7.66928289413452,9.47039129889822
12.0688258333248,-5.27615084409714,5.50462377905846,-2.89578823596239,8.15623934090834
12.0787578333257,-4.52351771056652,14.7649609494209,-3.99249141901732,15.9501182455385
12.0886898333265,-0.71776472479105,22.6310868501663,-3.78841569900513,22.9572074026523
12.0986218333273,7.7877960151434,33.3264769220352,-0.768260986804962,34.232938170018
12.1085538333282,17.1109585940838,33.8159309720993,-0.072448171377182,37.8986456256127
12.118485833329,18.7607598459721,24.9615063428879,0.129253286719322,31.2259445864556
12.1284178333299,12.5103412520885,13.8852438461781,-1.27213427066803,18.7330446141075
12.1383498333307,7.47781347870827,5.64124514222145,-1.36866127610207,9.46649749726315
12.1482818333316,4.86263458371163,2.11383160829544,1.01072747826576,5.39769109881796
12.1582138333324,4.46155564337969,3.25274642586708,1.91205355167389,5.84309736821431
12.1681458333333,4.0145205116272,6.07178264737129,1.0975498598814,7.36121831968869
12.1780778333341,2.8873252683878,8.30573945403099,0.661678816974163,8.81815025617901
12.1880098333349,1.11169164329767,9.51238607883454,0.924189856052399,9.62161494306507
12.1979418333358,-0.632112078666687,8.87841692447663,1.05301629602909,8.96296246140371
12.2078748333297,-2.03170424848795,6.45675046205521,1.04731789201498,6.84940314549442
12.2178068333305,-3.131814019382,3.39950978457928,0.928486390113831,4.71455329846577
12.2277388333314,-4.04000940173864,0.340345957875252,0.688620155453682,4.11238483798339
12.2376708333322,-4.76745477676392,-2.33320978403091,0.240300682783127,5.31321346860191
12.2476028333331,-4.9759606397152,-4.37840969860554,-0.125669235885143,6.62921175809657
12.2575348333339,-4.70270914256573,-5.73065433204174,-0.0460114476084709,7.41336559237645
12.2674668333348,-4.17601885378361,-6.60080012798309,-0.0844501662254334,7.81132688007059
12.2773988333356,-3.43755557030439,-7.11788811922073,-0.577411960959435,7.92556144063835
12.2873308333365,-2.61240088284016,-7.56124038219452,-1.29879962056875,8.10455889881631
12.2972628333373,-1.8292330044508,-7.97947534561157,-2.47650983691216,8.55284871537651
12.3071948333381,-1.1067750120163,-8.43960853278637,-3.6128638663888,9.24687668518197
12.3171268333244,-0.455867058634758,-9.00136223495007,-4.36697517603636,10.0151290080583
12.327058458337,-0.012316575050354,-9.3889694827795,-4.78770134568214,10.5392117267864
12.3369904583378,0.304004343152046,-9.59994520962238,-4.90217257887125,10.7834439146983
12.3469224583241,0.515992515385151,-9.39267544806004,-4.86674429923296,10.5912133593201
12.356854458325,0.577470433115959,-8.50045758247376,-4.91144713997841,9.83430547732583
12.3667864583258,0.51600245565176,-7.12467205882073,-5.12183229804039,8.78978819820074
12.3767194583343,0.442770757377148,-5.74187630832195,-5.60954153895378,8.03941202830812
12.3866514583351,0.497225584387779,-4.40556007504463,-6.17227991223335,7.59955473508523
12.396583458336,0.635045334398747,-3.07478700220585,-6.30308972775936,7.0417709279599
12.4065154583368,0.798948928713799,-1.74674808740616,-5.63646972119808,5.95476609024509
12.4164474583376,1.01596687585115,-0.456550598144531,-4.4250084990263,4.56303926763159
12.4263794583239,1.12707011282444,0.778614066839218,-3.00333490401506,3.30099188880815
12.4363114583248,1.1177110594511,1.92708849728107,-1.40363376528025,2.63308485161552
12.4462434583256,0.72129088819027,2.71925874888897,-0.051919766664505,2.81377404049544
12.4561754583265,0.03144954174757,2.91808922410011,0.784758321046829,3.02193305947328
12.4661074583273,-0.905455084741116,2.61005322575569,1.69642636477947,3.24192676704458
12.4760394583282,-2.04626644670963,1.48748663842678,2.95551812857389,3.89036120157972
12.485971458329,-3.2505993282795,-0.614928866028786,3.66945965141058,4.94059385465116
12.4959034583298,-4.29411916136742,-3.20806785106659,3.28769055604935,6.2880893681154
12.5058354583307,-5.01872015833855,-5.76180069565773,2.58154980361462,8.06537653632726
12.5157674583315,-5.07023061990738,-8.15197463929653,4.19823388785124,10.4779338056643
12.5256994583324,-3.08556108176708,-10.6378873836994,9.66859678387642,14.702622179284
12.5356314583332,0.766483433246613,-11.1033362746239,3.8734187194705,11.7845214521916
12.5455634583341,6.3861231136322,-12.5889102888107,12.427844055891,18.8073001400982
12.555496458328,14.2900208580494,-12.4316552710533,9.66807638168335,21.2655225617396
12.5654284583288,17.3164285826683,-7.82749685525894,2.08149007380009,19.1170344668065
12.5753604583297,13.2510396337509,-1.07109764099121,2.64180126786232,13.5542028710896
12.5852924583305,5.18974653840065,6.39542954206467,4.94197837650776,9.60511001676843
12.5952244583314,-1.66991874352098,13.9117048358917,4.54190281838179,14.7293258930122
12.6051564583322,-6.24722250580788,19.298651061058,0.961912583112717,20.3074123814705
12.615088458333,-9.59059492707253,28.8623710155487,3.40816278666258,30.6044366926556
12.6250204583339,-6.70009988307953,28.3015154457092,2.69055067420006,29.2079814074407
12.6349524583347,-0.163848045766354,17.5366721463203,1.20761930912733,17.5789664242642
12.6448844583356,3.36220308691263,10.3068425917625,1.95130298674107,11.0155797466624
12.6548164583364,4.48745120733976,8.74652186572552,2.12694018870592,10.0579688631553
12.6647484583373,5.52126904785633,9.67915159285069,2.63766377806664,11.4510985351767
12.6746804583381,6.08321512341499,10.6136705553532,2.73210508167744,12.5347479860045
12.6846124583244,5.94850930809975,9.6695814549923,1.90716674119234,11.5118570822431
12.6945444583253,5.49298138797283,7.92571546018124,1.36011352390051,9.73856862594647
12.7044764583261,5.02066143393517,6.45801521480084,0.809055694788694,8.21994968756336
12.7144084583269,4.12355705022812,5.19564404010773,0.248723596930504,6.63779354647785
12.7243404583278,2.40340853154659,3.98800923585892,-0.349711735546589,4.66935632960111
12.7342724583286,0.402638977468014,2.36027069807053,-0.89202052205801,2.55513141073399
12.7442044583295,-1.24307360887527,0.574064429998398,-0.853007606863976,1.61319680889822
12.7541374583379,-2.15832687288523,-1.53112031579018,-1.30471057087183,2.95041928976012
12.7640694583242,-2.32286079704762,-3.59993128716946,-2.2805263710022,4.8534511518752
12.7740014583251,-2.16761166661978,-5.1788853353262,-3.38781067550182,6.55718345227332
12.7839334583259,-2.16052016347647,-6.47478093624115,-3.92668890058994,7.8746124521221
12.7938654583268,-2.55811211675406,-7.83185770869255,-3.70254933714867,9.03276283122229
12.8037974583276,-3.38380123972893,-9.34552700936794,-3.13096821963787,10.4207460340035
12.8137294583285,-4.61936526954174,-10.499021859169,-2.54282398670912,11.7487850146362
12.8236614583293,-5.99307210803032,-11.5249673008919,-2.49516567081213,13.2275332660129
12.8335934583301,-6.94779963254929,-12.2831734156609,-2.875665628016,14.4020040861473
12.843525458331,-7.40080681800842,-12.1139386224747,-2.82126868844032,14.4733896347379
12.8534574583318,-7.40485309123993,-11.1028170418739,-2.79483664244413,13.6350836970706
12.8633894583327,-6.92204615592957,-9.5896599572897,-2.76106224775314,12.1449481603353
12.8733214583335,-6.17810198485851,-8.28812997937203,-2.25238723039627,10.5799475861618
12.8832534583344,-5.38476989150047,-7.41293745160103,-1.95250722080469,9.36801328420566
12.8931854583352,-4.49482279211283,-6.6712777876854,-1.96394759058952,8.28048726776051
12.9031174583361,-3.61335883319378,-6.00090913116932,-2.03554996222258,7.29456894591279
12.9130494583369,-2.98993367046118,-5.70164804935455,-2.17020256787539,6.7939880054412
12.9229814583377,-2.61292099267244,-5.96869506597519,-1.86887771129608,6.77830220662403
12.932913458324,-2.31899023264647,-6.24355513215065,-0.470197122395039,6.67688413267918
12.9428454583249,-1.89979486405849,-6.32850114226341,0.375256174206734,6.6181541557607
12.9527774583257,-1.34280547320843,-5.83757125496864,0.628479788303375,6.02290225223858
12.9627104583342,-0.637082796692848,-4.48039391040802,1.10967903167009,4.65952697551925
12.972642458335,0.529337030947208,-2.96756543934345,2.00827153176069,3.62212601580869
12.9825744583359,2.12267669141293,-1.13493403315544,2.8944825527072,3.76455320639894
12.9925064583367,3.73038354545832,1.56813611447811,3.73828488796949,5.50904584963474
13.0024384583376,4.89208964020014,5.25379167616367,4.83570932507515,8.65557350502547
13.0123704583239,5.99897955000401,9.47807110905647,3.06875676870346,11.6292242086547
13.0223024583247,7.57100289344788,12.2590559899807,1.11375658750534,14.4514702474969
13.0322344583255,7.14960341691971,13.4536234366894,0.0656306102871895,15.2355216508157
13.0421664583264,4.04871853709221,13.8723086357117,-0.363328146636486,14.4556243732041
13.0520984583272,0.568391169011593,13.1567369091511,-0.306346153020859,13.1725716009859
13.0620304583281,-1.86436044484377,12.3894687795639,-0.117648902535439,12.5295098775792
13.0719624583289,-2.45450267136097,11.9765512740612,0.229493566453457,12.2276339117991
13.0818944583298,-0.845252152383328,11.0973183202744,0.250678028762341,11.1322847869029
13.0918264583306,1.90965122312307,10.0038562488556,0.333660543859005,10.1899576544886
13.1017584583315,4.23315229028463,9.56254524886608,0.116003788411617,10.4582650008632
13.1116904583323,6.15190119624138,9.10378089487553,-0.140912342369556,10.9883834661177
13.1216224583332,7.22731408238411,7.94158304929733,-0.198946250081062,10.7397574360288
13.131554458334,7.20973384380341,6.01844317674637,-0.320736735463142,9.39706296795359
13.1414864583348,6.59277014672756,3.83775918245316,-0.0192975658178329,7.62845896273502
13.1514184583357,5.54740785598755,1.72213306367397,0.703088798224926,5.85096659261193
13.1613504583365,4.13106575220823,0.218963608145714,1.3082443356514,4.33879621007071
13.1712824583374,2.67618903547525,-0.922315238714218,1.73513522475958,3.32014267786249
13.1812144583237,1.31223944574595,-1.92305157959461,1.72430559664965,2.89712435552743
13.1911474583321,-0.0412263786792755,-2.68862343192101,1.15754463136196,2.92750835123806
13.201079458333,-1.49519063740969,-3.43087658822537,0.100722675025463,3.74388224482218
13.2110114583338,-3.01613825976849,-4.27679853916168,-1.14327684044838,5.35678800033382
13.2209434583347,-4.55991575092077,-5.18668259739876,-2.26009883075953,7.26653664041234
13.2308754583355,-6.11030059576035,-6.2138062530756,-3.1941047000885,9.2816736829323
13.2408074583363,-7.4834256362915,-7.27908065199852,-3.7180175614357,11.0819821773611
13.2507394583372,-8.48076006710529,-7.88752612531185,-3.77935631543398,12.1827703685285
13.260671458338,-8.92545426607132,-8.00870674610138,-3.84594411492348,12.5934270052236
13.2706034583243,-8.47494968891144,-7.91245689868927,-3.86564163029194,12.2219037640231
13.2805354583252,-6.96100849270821,-7.99367530882359,-3.45036623507738,11.1471750383052
13.290467458326,-5.14749280393124,-8.29719667196274,-2.63818505734205,10.1143549065937
13.3003994583269,-3.90500479370356,-8.07978608429432,-1.54872891336679,9.10662214291897
13.3103314583277,-3.09999171763659,-7.77522742509842,-0.791676746606827,8.40778581033889
13.3202638749935,-2.46705079615116,-7.74290635585785,-0.846944628953934,8.17045002866353
13.3301958749944,-2.01470259189606,-7.93784258544445,-0.950488585531712,8.24450119754459
13.3401278749952,-1.82417691707611,-8.12159133732319,-1.4224009886384,8.44458950143557
13.3500598749961,-2.27080712914467,-8.09286045849323,-2.18734368056059,8.68535709083431
13.3599918749969,-3.05771079361439,-8.06729116916657,-2.55461665123701,8.99760236620158
13.3699238749978,-3.66988942176104,-8.01041998028755,-2.1968915989995,9.08081765736424
13.3798558749986,-4.27341387838125,-7.37491242349148,-0.906802867949009,8.57167958287237
13.3897878749995,-4.65085077166557,-6.21338993132114,0.233600943088532,7.76474060993393
13.3997198750003,-4.57618913680315,-5.14765301764011,0.802743771672249,6.93427978731556
13.4096518750011,-4.04466787844896,-4.02505836367607,1.11702284216881,5.81447960765901
13.419583875002,-3.32787145256996,-2.41732782840729,1.74153880298138,4.46667209867841
13.4295158750028,-2.6413238427043,0.514971299171448,2.52108257710934,3.6874983988624
13.4394488749967,-1.99083221107721,4.99097628951073,4.0490468582511,6.72815261980835
13.4493808749976,-0.598446442186832,11.2830516171455,5.21239046573639,12.4432474180431
13.4593128749984,3.22451957702637,17.0298284769058,2.73660334467888,17.5471246169156
13.4692448749993,8.89907630681992,17.9204857206345,0.111406707465649,20.0087425650023
13.4791768750001,12.3962375164032,16.0016751265526,-0.281804804205895,20.2435106976652
13.489108875001,12.0191786456108,14.0411388015747,-0.0296819284558296,18.4828329856943
13.4990408750018,9.17747861623764,13.2897154569626,-0.324021408855915,16.1538738558875
13.5089728750027,6.35343717813492,13.5225656175613,-0.134014382064343,14.9413488250679
13.5189048750035,4.86163587927818,13.2093209195137,0.0797045660018921,14.0757953734497
13.5288368750043,5.02449603796005,11.887792879343,-0.279250155687332,12.9090340702582
13.5387688749906,5.7919816839695,10.5119991695881,-0.628255255222321,12.0184808954615
13.5487008749915,6.35934052705765,9.51435951411724,-1.15105392962694,11.5017030935362
13.5586328749923,6.56547475934029,8.39197594463825,-1.60316824525595,10.7750112525936
13.5685648749932,6.62083444297314,6.31835739254952,-1.12061887979507,9.22024270477723
13.578496874994,6.4275073671341,4.01983153760433,-0.528809319734573,7.59944312709291
13.5884288749949,5.63531080305576,2.02762259960175,-0.2945394551754,5.99622670886515
13.5983608749957,4.55203925907612,0.230706571340561,-0.19410797148943,4.56201324448162
13.6082928749966,3.42582576334477,-1.14795578241348,0.073911144733429,3.61379959274018
13.6182248749974,2.25022434532642,-2.0810860311985,0.371928816139698,3.0875167558775
13.6281568749982,1.04686970293522,-2.6324235033989,0.363889771699905,2.85622223262098
13.6380888749991,-0.146976782083511,-2.88584943115711,0.0814575612545014,2.89073769963084
13.6480208749999,-1.34110451817513,-3.02709652662277,-0.648927501440048,3.37386745624167
13.6579528750008,-2.70212172925472,-3.19137346565723,-1.78097651839256,4.54512967868655
13.6678848750016,-4.37121002197266,-3.4145306968689,-2.89508423119783,6.25683703174252
13.6778168750025,-6.20739945888519,-3.61190170705318,-3.60155301243067,8.03422840632069
13.6877488750033,-8.14185954093933,-3.90636047065258,-3.75007024347782,9.77816729975918
13.6976808750042,-9.96111661076546,-4.39528651714325,-3.44590276300907,11.4200102256155
