"Time (s)","Linear Acceleration x (m/s^2)","Linear Acceleration y (m/s^2)","Linear Acceleration z (m/s^2)","Absolute acceleration (m/s^2)"
2.683691669E-2,-2.149056405E-1,5.604129356E-1,1.295385139E0,1.427679849E0
3.687491675E-2,2.219135284E-2,2.791987002E-1,8.053340882E-1,8.526472682E-1
4.691291670E-2,1.475977564E-1,8.100849509E-2,4.298340851E-1,4.616327704E-1
5.695091665E-2,1.813975865E-1,4.424178779E-2,4.076591045E-1,4.483841719E-1
6.698891672E-2,2.851459032E-1,-1.092254037E-1,5.983490860E-1,6.717588881E-1
7.702591666E-2,5.683069691E-1,-3.212173766E-1,8.257128042E-1,1.052594437E0
8.706391673E-2,6.510669976E-1,-4.079163820E-1,9.662769449E-1,1.234493882E0
9.710191668E-2,6.121911997E-1,-4.603661987E-1,9.821392715E-1,1.245517021E0
1.071399167E-1,5.273837686E-1,-4.419723201E-1,8.403951627E-1,1.086157079E0
1.171779167E-1,4.760294276E-1,-4.256939641E-1,5.011788869E-1,8.117879302E-1
1.272159166E-1,4.650270143E-1,-4.500560957E-1,5.870546043E-2,6.498053127E-1
1.372529167E-1,3.764794117E-1,-4.977842858E-1,-2.295482379E-1,6.649949896E-1
1.472909166E-1,3.809750435E-1,-5.646980676E-1,-3.693376225E-1,7.748781651E-1
1.573289167E-1,4.319738737E-1,-7.025865224E-1,-4.747190666E-1,9.516235817E-1
1.673669167E-1,3.533092350E-1,-7.943948248E-1,-4.211995018E-1,9.660743105E-1
1.774052917E-1,1.042663801E-1,-8.068350685E-1,-1.324979067E-1,8.242633080E-1
1.874422916E-1,5.866540700E-2,-8.138987973E-1,1.651955366E-1,8.325637799E-1
1.974802917E-1,1.655598181E-1,-8.660606387E-1,2.827245712E-1,9.259612662E-1
2.075182917E-1,1.258168781E-1,-9.699004644E-1,2.691280407E-1,1.014379958E0
2.175562917E-1,3.715086937E-2,-1.010005055E0,2.763955450E-1,1.047800026E0
2.275942917E-1,7.082790792E-2,-1.111148145E0,2.493971962E-1,1.140993319E0
2.376312917E-1,5.835082680E-3,-1.222847505E0,2.446346390E-1,1.247091086E0
2.476692917E-1,-7.783857331E-2,-1.231423616E0,4.802663201E-1,1.324053890E0
2.577072917E-1,-1.052949053E-1,-1.241173556E0,8.092476296E-1,1.485422680E0
2.677452917E-1,-6.442447588E-2,-1.305530351E0,9.885215074E-1,1.638821156E0
2.777832916E-1,-6.370453745E-2,-1.298006446E0,1.104281759E0,1.705378904E0
2.878202917E-1,-9.166343763E-2,-1.185717686E0,1.197088766E0,1.687409295E0
2.978582917E-1,-1.477426212E-1,-1.038459653E0,1.064776801E0,1.494649112E0
3.078962917E-1,-3.546144797E-1,-9.367900211E-1,8.257303458E-1,1.298136193E0
3.179342917E-1,-6.017751159E-1,-7.990752286E-1,6.450952363E-1,1.190295079E0
3.279722917E-1,-6.566469955E-1,-6.078519809E-1,6.103692073E-1,1.083152749E0
3.380102917E-1,-6.200228141E-1,-4.523575598E-1,5.839684439E-1,9.644038549E-1
3.480472917E-1,-6.124655803E-1,-5.052201900E-1,4.742442727E-1,9.248076327E-1
3.580852917E-1,-3.983662708E-1,-4.221955749E-1,3.304290801E-1,6.679282643E-1
3.681232916E-1,-2.193169262E-1,-6.615422845E-2,2.734368539E-1,3.567127824E-1
3.781612917E-1,-2.987193373E-1,-2.274274528E-1,-1.658901858E-1,4.104583322E-1
3.881992917E-1,-4.545482922E-1,-3.462995929E-1,-2.453643715E-1,6.218852248E-1
3.982362917E-1,-3.659148818E-1,-4.625223595E-1,-1.620725387E-1,6.116274532E-1
4.082742917E-1,5.136596225E-2,-6.992740747E-1,-1.557253861E-1,7.182430574E-1
4.183122917E-1,6.678710184E-1,-8.303338587E-1,-6.531398356E-2,1.067601017E0
4.283502917E-1,1.222817831E0,-2.014155293E-1,-6.021579623E-2,1.240756868E0
4.383882917E-1,9.090566041E-1,2.930001757E-1,-4.810124248E-1,1.069395140E0
4.484262917E-1,7.669865862E-1,4.954930544E-3,5.639054775E-3,7.670233201E-1
4.584632918E-1,8.657798262E-1,6.728206864E-1,2.252418805E0,2.505125318E0
4.685012917E-1,1.536508964E0,1.989076585E-1,2.480867767E0,2.924915200E0
4.785392917E-1,2.802053568E0,-1.514985801E0,8.310413718E-1,3.292007889E0
4.885772917E-1,1.415546005E0,-3.504781301E0,-2.055728996E0,4.302706609E0
4.986152917E-1,-7.903486978E-1,-5.085262642E0,-4.795963461E0,7.034615322E0
5.086522917E-1,-1.906503375E0,-5.643306286E0,-5.941390323E0,8.413190829E0
5.186902917E-1,-2.040885839E0,-5.833457154E0,-6.253719932E0,8.792238075E0
5.287282917E-1,-2.147760516E0,-5.340422269E0,-6.043876811E0,8.346342441E0
5.387662917E-1,-3.149918753E0,-4.324547195E0,-5.375878615E0,7.584442463E0
5.488042916E-1,-4.209733315E0,-3.858973758E0,-4.305040006E0,7.151706265E0
5.588422917E-1,-3.707012517E0,-3.542077766E0,-4.861835269E0,7.065811976E0
5.688792916E-1,-3.003326426E0,-3.140803529E0,-5.579243606E0,7.071956988E0
5.789172917E-1,-3.462541308E0,-2.458843937E0,-6.398077746E0,7.679225524E0
5.889552917E-1,-6.794040080E0,-1.149405161E0,-6.929311321E0,9.772178274E0
5.989932917E-1,-7.902001492E0,-1.508549479E-1,-5.984135808E0,9.913337792E0
6.090312917E-1,-5.392471844E0,-4.967841927E-1,-5.832368987E0,7.958773469E0
6.190692917E-1,-4.278025870E0,-5.246364543E-1,-5.664601260E0,7.117896894E0
6.291062917E-1,-4.530644297E0,3.626402217E-1,-5.459113145E0,7.103531658E0
6.391442918E-1,-5.135355738E0,1.432123300E0,-5.176665732E0,7.431064783E0
6.491822917E-1,-5.151323315E0,2.340247785E0,-4.601790878E0,7.293104337E0
6.592202917E-1,-3.782977788E0,2.996377594E0,-3.265943592E0,5.827142282E0
6.692582917E-1,-1.019957308E0,2.817423267E0,-3.295970213E-1,3.014435432E0
6.792962917E-1,2.492668910E0,2.428520422E0,5.230927309E0,6.282810696E0
6.893332917E-1,7.198123612E0,1.738781987E0,1.456231517E1,1.633699389E1
6.993712917E-1,1.341139835E1,-3.463729754E-2,2.454418822E1,2.796934002E1
7.094092917E-1,1.994889419E1,-2.340389872E0,3.230916431E1,3.804363156E1
7.194472917E-1,2.138609769E1,-3.431745484E0,3.733595947E1,4.316382654E1
7.294852916E-1,1.894634462E1,-3.455647440E0,3.798246272E1,4.258606519E1
7.395232917E-1,1.533154679E1,-2.848470520E0,3.435609909E1,3.772945343E1
7.495602916E-1,1.237185229E1,-2.394515647E0,2.836117576E1,3.103470194E1
7.595982917E-1,1.054887288E1,-1.281819599E0,2.268830302E1,2.505356012E1
7.696362917E-1,9.546509845E0,-7.408641502E-2,1.780987043E1,2.020724682E1
7.796742917E-1,8.581502915E0,9.421273595E-1,1.381008608E1,1.628644448E1
7.897122917E-1,6.668991526E0,1.273275355E0,1.061318524E1,1.259906262E1
7.997502917E-1,4.644756511E0,1.006489124E0,7.655730802E0,9.010937661E0
8.097872917E-1,3.320314803E0,7.949055791E-1,4.805397359E0,5.894761153E0
8.198252918E-1,2.726192670E0,3.974493543E-1,2.153941754E0,3.497078429E0
8.298632917E-1,2.296555343E0,-6.946745818E-1,-6.454285276E-1,2.484616108E0
8.399012916E-1,1.534855810E0,-2.868927589E0,-3.250067232E0,4.598854735E0
8.499392917E-1,7.199121147E-1,-5.550481153E0,-5.416693350E0,7.788881905E0
8.599772917E-1,2.557297307E-1,-8.166875099E0,-7.066676450E0,1.080283123E1
8.700142917E-1,-5.052049872E-1,-1.117721701E1,-7.824791933E0,1.365330660E1
8.800522917E-1,-1.001744986E0,-1.469043468E1,-8.560126664E0,1.703197383E1
8.900902917E-1,-1.503096950E0,-1.779433204E1,-9.922058380E0,2.042901847E1
9.001282917E-1,-2.138669265E0,-2.045151850E1,-1.191927897E1,2.376778758E1
9.101662918E-1,-2.891690215E0,-2.251686968E1,-1.373894183E1,2.653544451E1
9.202042917E-1,-4.049434821E0,-2.414580806E1,-1.507784780E1,2.875342525E1
9.302412916E-1,-6.011883770E0,-2.504950460E1,-1.628135681E1,3.047462890E1
9.402792917E-1,-8.781244971E0,-2.463916806E1,-1.818174282E1,3.185552759E1
9.503172917E-1,-1.184135546E1,-2.402325276E1,-2.168943955E1,3.446398352E1
9.603552917E-1,-1.526590478E1,-2.399095742E1,-2.565995625E1,3.830205271E1
9.703932917E-1,-1.925468468E1,-2.355428736E1,-2.824554824E1,4.151335123E1
9.804312917E-1,-2.260243082E1,-2.286578707E1,-2.794393014E1,4.259785592E1
9.904692917E-1,-2.432379731E1,-2.195575449E1,-2.531558800E1,4.140750254E1
1.000506292E0,-2.323412657E1,-2.226105867E1,-2.340916882E1,3.979156388E1
1.010544292E0,-2.036424296E1,-2.317302317E1,-2.157389155E1,3.764471000E1
1.020582292E0,-1.658909927E1,-2.330121519E1,-1.916975504E1,3.443289637E1
1.030620292E0,-1.320801348E1,-2.255826563E1,-1.648832251E1,3.090617653E1
1.040658292E0,-1.204720786E1,-2.089570575E1,-1.391126980E1,2.784401486E1
1.050696292E0,-9.305499895E0,-2.031340961E1,-1.200104058E1,2.536241143E1
1.060733292E0,5.759938942E0,-2.306867610E1,-5.791091153E0,2.447197275E1
1.070771292E0,3.684790642E1,-2.177915922E1,9.510799145E0,4.384695296E1
1.080809292E0,6.407591751E1,-1.718788222E1,3.187046877E1,7.359941086E1
1.090847292E0,6.238911741E1,-1.814701036E1,5.366399577E1,8.427063782E1
1.100885292E0,3.998374244E1,-2.094825819E1,7.022990616E1,8.348514179E1
1.110923292E0,2.245538738E1,-1.978004999E1,7.682811480E1,8.245031245E1
1.120961292E0,1.486588857E1,-1.423311809E1,7.055395885E1,7.349447192E1
1.130998292E0,1.372245619E1,-1.142878762E1,5.391984654E1,5.680028909E1
1.141036292E0,1.371836314E1,-8.068879273E0,3.663725930E1,3.994482531E1
1.151074292E0,1.126209286E1,-4.128083380E0,2.394797337E1,2.678397350E1
1.161112292E0,7.851672753E0,-1.344696024E0,1.436287132E1,1.642403863E1
1.171150417E0,4.561111214E0,4.301545125E-1,6.647127033E0,8.072983724E0
1.181188417E0,2.421386381E0,1.589648606E0,4.585673028E-1,2.932640221E0
1.191226417E0,1.127089116E0,2.182683742E0,-4.497119286E0,5.124306789E0
1.201263417E0,3.848935550E-1,2.266239138E0,-8.175904954E0,8.492903196E0
1.211301417E0,6.053154588E-2,1.952720790E0,-1.050945563E1,1.068950140E1
1.221339417E0,-1.409561965E-1,1.150299200E0,-1.185881759E1,1.191530996E1
1.231377417E0,-6.255721141E-1,1.205890287E-1,-1.304058314E1,1.305613614E1
1.241415417E0,-1.296211643E0,-8.454158744E-1,-1.409244578E1,1.417716194E1
1.251453417E0,-1.452904889E0,-2.006381127E0,-1.486248315E1,1.506751152E1
1.261491417E0,-2.042411816E0,-3.412109657E0,-1.515907030E1,1.567199256E1
1.271528417E0,-2.796522102E0,-4.563020915E0,-1.453447540E1,1.548846897E1
1.281566417E0,-3.227161641E0,-5.202704553E0,-1.362999768E1,1.494187216E1
1.291604417E0,-3.177066206E0,-5.704959328E0,-1.322415297E1,1.474850949E1
1.301642417E0,-2.794540481E0,-6.499757903E0,-1.338746219E1,1.514200955E1
1.311680417E0,-2.595785727E0,-7.347749183E0,-1.373331564E1,1.579023369E1
1.321718417E0,-2.634339051E0,-7.718723441E0,-1.425932415E1,1.642701308E1
1.331756417E0,-2.975164481E0,-7.537390759E0,-1.480134466E1,1.687434938E1
1.341793417E0,-3.551446760E0,-7.187235512E0,-1.521739277E1,1.719994683E1
1.351831417E0,-4.591644205E0,-6.940116391E0,-1.578357983E1,1.784292028E1
1.361869417E0,-6.169420624E0,-6.779706216E0,-1.675609225E1,1.909954959E1
1.371907417E0,-7.404277725E0,-6.917078362E0,-1.818728598E1,2.081938215E1
1.381945417E0,-8.285035048E0,-7.259521716E0,-1.946225849E1,2.236340687E1
1.391983417E0,-8.925496951E0,-7.324911128E0,-2.006747338E1,2.315215555E1
1.402021417E0,-9.232676332E0,-6.702406610E0,-1.985536446E1,2.289978307E1
1.412058417E0,-9.525715392E0,-5.755482779E0,-1.929294886E1,2.227291430E1
1.422096417E0,-1.032467777E1,-4.857226202E0,-1.899743292E1,2.216064247E1
1.432134417E0,-1.193964482E1,-3.670947183E0,-1.924138928E1,2.294040176E1
1.442172417E0,-1.473473435E1,-1.754141599E0,-1.987705529E1,2.480497402E1
1.452210417E0,-1.627761225E1,-2.126632333E-1,-2.101871480E1,2.658556484E1
1.462248417E0,-1.330941823E1,-1.721249842E0,-2.189126438E1,2.567743700E1
1.472286417E0,-4.197558827E0,-1.008149441E1,-1.919683233E1,2.208561525E1
1.482323417E0,1.280957485E1,-2.549552319E1,-4.265306422E0,2.884960571E1
1.492361417E0,2.467081786E1,-3.669059994E1,2.028980089E1,4.864694645E1
1.502399417E0,3.030721333E1,-4.707474506E1,3.720357851E1,6.722101648E1
1.512437417E0,4.554002871E1,-4.615484239E1,5.186818954E1,8.303296199E1
1.522475417E0,6.154843281E1,-2.482973115E1,7.068405238E1,9.695854986E1
1.532513417E0,5.866611101E1,-1.698199241E1,6.937749906E1,9.243017918E1
1.542551417E0,3.846646482E1,-1.821154140E1,5.166394396E1,6.693647931E1
1.552588417E0,1.903789565E1,-1.904242490E1,3.231365965E1,4.206219225E1
1.562626417E0,7.125954353E0,-1.774577443E1,1.768281979E1,2.604561098E1
1.572664417E0,-3.895181179E-2,-1.312740026E1,6.075241860E0,1.446508619E1
1.582702417E0,-1.711874124E0,-7.503045384E0,-2.220459679E0,8.009784281E0
1.592740417E0,-3.181768245E-1,-3.191971343E0,-6.930997074E0,7.637318769E0
1.602778417E0,9.472074205E-1,-8.158493554E-1,-8.232023022E0,8.326404692E0
1.612816417E0,1.087580357E0,1.474057484E-1,-7.005530947E0,7.090981832E0
1.622854417E0,1.439134550E0,-1.106254464E-1,-5.412575741E0,5.601724948E0
1.632891417E0,3.056108949E0,-7.098714953E-1,-5.277154226E0,6.139387280E0
1.642929417E0,5.538667438E0,-1.182714629E0,-6.398033892E0,8.544617520E0
1.652967417E0,7.075115737E0,-2.223503447E0,-8.004515462E0,1.091208037E1
1.663005417E0,6.948272088E0,-3.754241647E0,-9.736201707E0,1.253660397E1
1.673043417E0,5.584017273E0,-5.503176593E0,-1.229662201E1,1.458331630E1
1.683081417E0,3.556119854E0,-7.023478975E0,-1.552676895E1,1.740849791E1
1.693119417E0,1.496305701E0,-8.414383060E0,-1.898838377E1,2.082305191E1
1.703157417E0,-8.139948379E-1,-9.025945684E0,-2.220145683E1,2.397988675E1
1.713194417E0,-2.781467569E0,-8.660122823E0,-2.522388260E1,2.681377524E1
1.723232417E0,-4.155944778E0,-8.211585249E0,-2.714398894E1,2.866178893E1
1.733270417E0,-6.112397992E0,-7.877663042E0,-2.825946695E1,2.996692271E1
1.743308417E0,-7.945240483E0,-7.387459964E0,-2.958311051E1,3.150971023E1
1.753346417E0,-8.150132182E0,-7.349654791E0,-3.033869473E1,3.226264835E1
1.763384417E0,-6.228848800E0,-7.188335373E0,-2.940240114E1,3.090261988E1
1.773422417E0,-3.171683552E0,-6.894774742E0,-2.761144810E1,2.863545987E1
1.783459417E0,-6.052609700E-1,-6.760931976E0,-2.473152833E1,2.564615051E1
1.793497417E0,-2.591691543E-2,-5.846977086E0,-2.138508028E1,2.217001288E1
1.803535417E0,-5.664088898E-1,-4.939427236E0,-1.898224887E1,1.962255163E1
1.813573417E0,-1.865040184E0,-4.305680276E0,-1.812305198E1,1.872063756E1
1.823611417E0,-3.243715986E0,-3.441026770E0,-1.790779843E1,1.852165228E1
1.833649417E0,-3.733728738E0,-2.330043224E0,-1.791497063E1,1.844765579E1
1.843687417E0,-2.796624429E0,-1.251388496E0,-1.897721792E1,1.922295194E1
1.853725417E0,3.203548830E0,-2.744320208E0,-1.811627389E1,1.860089778E1
1.863762417E0,1.389940697E1,-7.771113324E0,-9.380467046E0,1.848179857E1
1.873800417E0,2.193909227E1,-1.469780217E1,7.118484535E0,2.734999050E1
1.883838417E0,2.831607735E1,-2.887190198E1,2.931649619E1,4.994841248E1
1.893876417E0,2.641598019E1,-3.450922832E1,5.086299704E1,6.690093659E1
1.903914417E0,1.916072109E1,-2.650207927E1,6.458148648E1,7.238965281E1
1.913952417E0,1.476997669E1,-2.394098712E1,6.907883264E1,7.458691705E1
1.923990417E0,1.138079718E1,-2.252126678E1,6.177119302E1,6.672638375E1
1.934028417E0,1.140920646E1,-1.886039874E1,4.812352973E1,5.293164220E1
1.944066417E0,1.157155675E1,-1.387644963E1,3.431083463E1,3.877744387E1
1.954103417E0,1.013202605E1,-8.604925107E0,2.278918153E1,2.638274972E1
1.964141417E0,7.586715531E0,-4.547738924E0,1.439737340E1,1.689747149E1
1.974179417E0,4.959612409E0,-2.551720818E0,7.752412174E0,9.550336586E0
1.984217417E0,2.866254827E0,-1.248075610E0,1.891766052E0,3.654023571E0
1.994255417E0,1.423373673E0,-5.860450825E-1,-2.944261361E0,3.322366087E0
2.004293417E0,5.463639767E-1,-6.960877807E-1,-6.204241378E0,6.267029828E0
2.014331417E0,1.097072142E-1,-8.062070775E-1,-8.295271769E0,8.335078838E0
2.024369417E0,3.117001560E-1,-1.043396457E0,-9.927051902E0,9.986600654E0
2.034406417E0,5.241009955E-1,-1.566467319E0,-1.154417891E1,1.166175666E1
2.044444417E0,3.884843302E-1,-2.481349870E0,-1.259340329E1,1.284141050E1
2.054482417E0,2.488574982E-3,-3.452460415E0,-1.296389925E1,1.341574347E1
2.064520417E0,-5.120647945E-1,-4.344130397E0,-1.311747519E1,1.382757516E1
2.074558417E0,-1.155790686E0,-5.457235605E0,-1.363384632E1,1.473088721E1
2.084596417E0,-2.022513303E0,-6.618356393E0,-1.445665598E1,1.602772921E1
2.094634417E0,-3.121592209E0,-7.293901005E0,-1.546084510E1,1.737765983E1
2.104672417E0,-4.040397949E0,-7.670597348E0,-1.634114576E1,1.849853843E1
2.114709417E0,-5.117455657E0,-7.764350435E0,-1.711098198E1,1.947457816E1
2.124747417E0,-6.240995221E0,-7.711782796E0,-1.800497916E1,2.055725881E1
2.134785417E0,-6.927527921E0,-7.765095370E0,-1.905533906E1,2.171159358E1
2.144823417E0,-7.495622343E0,-8.114857684E0,-2.041742456E1,2.321435968E1
2.154861417E0,-7.519030502E0,-8.413846285E0,-2.158876453E1,2.435987239E1
2.164899417E0,-7.082380317E0,-8.106413720E0,-2.199269252E1,2.448576278E1
2.174936833E0,-6.183848628E0,-7.670623076E0,-2.189534574E1,2.401009386E1
2.184974833E0,-5.282844152E0,-7.391788657E0,-2.150714441E1,2.334746759E1
2.195012833E0,-4.967171105E0,-7.096862116E0,-2.062283491E1,2.236827128E1
2.205049833E0,-5.314649497E0,-6.457014756E0,-1.887961620E1,2.064893331E1
2.215087833E0,-5.712124506E0,-5.698820336E0,-1.704486518E1,1.885821700E1
2.225125833E0,-6.260195723E0,-4.831827066E0,-1.600300829E1,1.785029069E1
2.235163833E0,-7.646979859E0,-3.456992592E0,-1.470045330E1,1.692720963E1
2.245201833E0,-9.324423823E0,-2.160684470E0,-1.289161129E1,1.605637190E1
2.255239833E0,-1.014458002E1,-1.499666389E0,-1.158499949E1,1.547170696E1
2.265277833E0,-7.249731138E0,-3.177081701E0,-8.334721763E0,1.149434803E1
2.275315833E0,-1.715517524E-1,-7.560735183E0,6.914244801E-1,7.594222430E0
2.285353833E0,1.166981804E1,-1.190600228E1,1.488776417E1,2.235135489E1
2.295390833E0,2.538780579E1,-1.376289554E1,2.894214341E1,4.088527414E1
2.305428833E0,3.967955157E1,-1.631463916E1,4.140493393E1,5.962384437E1
2.315466833E0,4.525339352E1,-1.558495342E1,4.927232985E1,6.869150520E1
2.325504833E0,4.084679147E1,-1.196647886E1,5.228001596E1,6.741555502E1
2.335542833E0,3.118047159E1,-1.119653738E1,5.062063229E1,6.049820387E1
2.345580833E0,2.104469748E1,-1.006439715E1,4.346408940E1,4.932847504E1
2.355618833E0,1.445692963E1,-9.022822101E0,3.244084828E1,3.664454626E1
2.365656833E0,1.073856591E1,-7.250815796E0,2.176821558E1,2.533271278E1
2.375694833E0,8.144064526E0,-4.833412831E0,1.347243159E1,1.646797133E1
2.385731833E0,5.911671849E0,-3.022509678E0,7.772612550E0,1.022237422E1
2.395769833E0,3.930423517E0,-1.582342217E0,4.204733945E0,5.969239773E0
2.405807833E0,2.317479604E0,-9.726802307E-1,1.841945436E0,3.116020144E0
2.415845833E0,1.393403769E0,-1.354703826E0,-1.920868814E-2,1.943493117E0
2.425883833E0,8.548904103E-1,-2.658906128E0,-1.738673083E0,3.289924543E0
2.435921833E0,-1.394970238E-2,-4.610742965E0,-3.575372397E0,5.834589365E0
2.445959833E0,-1.413238694E0,-6.775941778E0,-5.978946404E0,9.146498275E0
2.455997833E0,-2.762109484E0,-9.182782626E0,-8.489509256E0,1.280720551E1
2.466035833E0,-3.824856132E0,-1.149879867E1,-9.775983238E0,1.556989864E1
2.476072833E0,-4.955962577E0,-1.324918256E1,-9.544728198E0,1.706470744E1
2.486110833E0,-6.060334384E0,-1.466416898E1,-8.648926574E0,1.807123227E1
2.496148833E0,-6.873979704E0,-1.608136800E1,-7.945209492E0,1.920906941E1
2.506186833E0,-7.738022177E0,-1.742655270E1,-7.500437526E0,2.048946777E1
2.516224833E0,-8.584236488E0,-1.851548435E1,-7.254912940E0,2.165977928E1
2.526262833E0,-9.420363184E0,-1.943188104E1,-6.944567292E0,2.268409703E1
2.536300833E0,-1.032038708E1,-2.012291668E1,-6.774271814E0,2.360789961E1
2.546338833E0,-1.144877574E1,-2.050054624E1,-6.780656973E0,2.444021626E1
2.556376833E0,-1.262543668E1,-2.020008589E1,-6.716596048E0,2.474990472E1
2.566413833E0,-1.385916409E1,-1.933172525E1,-5.947301273E0,2.451861381E1
2.576451833E0,-1.540900252E1,-1.847524031E1,-4.820124741E0,2.453579967E1
2.586489833E0,-1.694122445E1,-1.736088379E1,-3.712290798E0,2.453948807E1
2.596527833E0,-1.855644761E1,-1.636884753E1,-3.281501863E0,2.496095294E1
2.606565833E0,-2.002042902E1,-1.551210881E1,-3.867026836E0,2.562024579E1
2.616603833E0,-2.125036277E1,-1.494611471E1,-4.361767353E0,2.634367623E1
2.626641833E0,-2.234815880E1,-1.382585134E1,-3.559379092E0,2.651911662E1
2.636679833E0,-2.387827456E1,-1.187908988E1,-1.849324037E0,2.673396289E1
2.646717833E0,-2.551142294E1,-9.857459511E0,-1.004932888E0,2.736808540E1
2.656755833E0,-2.570153931E1,-8.855891696E0,-9.115815780E-1,2.719975959E1
2.666793833E0,-1.931352170E1,-9.584310340E0,-1.035534875E0,2.158572347E1
2.676830833E0,-6.064369547E-1,-1.045834629E1,-4.142535943E0,1.126522867E1
2.686868833E0,2.582424898E1,-6.554249859E0,-1.025077949E1,2.854695267E1
2.696906833E0,4.874100038E1,1.505538455E0,-1.605061866E1,5.133784300E1
2.706944833E0,5.917613322E1,7.179228920E-1,-1.655894986E1,6.145347002E1
2.716982833E0,6.375222968E1,-5.338269324E0,-1.575216508E0,6.399472803E1
2.727020833E0,6.492275805E1,-2.626659026E0,2.305884342E1,6.894616821E1
2.737058833E0,5.755085987E1,3.704972716E-1,4.021526879E1,7.021044498E1
2.747096833E0,4.509812422E1,1.472395121E0,4.550596985E1,6.408433543E1
2.757134833E0,3.448362219E1,3.007329429E0,4.204004914E1,5.445667968E1
2.767172833E0,2.577088495E1,2.388620631E0,3.057780609E1,4.006053226E1
2.777209833E0,1.901083473E1,-8.230011579E-1,1.534539768E1,2.444525308E1
2.787247833E0,1.330584442E1,-2.676551563E0,3.477499655E0,1.401079683E1
2.797285833E0,7.071497480E0,-3.383018005E0,-4.246922776E0,8.915561704E0
2.807323833E0,2.121477427E0,-3.577721808E0,-8.138426056E0,9.139734049E0
2.817361833E0,-1.579532338E0,-4.009111837E0,-9.164510661E0,1.012700132E1
2.827399833E0,-4.312979355E0,-5.296897350E0,-8.970809948E0,1.127538663E1
2.837437833E0,-6.010886235E0,-6.456893134E0,-7.846443003E0,1.180630722E1
2.847475833E0,-6.948486096E0,-7.694127129E0,-6.150289119E0,1.205433978E1
2.857513833E0,-7.258041201E0,-9.729544067E0,-4.671735857E0,1.300647169E1
2.867551833E0,-7.204160278E0,-1.195906108E1,-3.868971035E0,1.448751201E1
2.877588833E0,-6.930907611E0,-1.381694369E1,-3.193081145E0,1.578420668E1
2.887626833E0,-6.321465772E0,-1.551792328E1,-2.686283961E0,1.697006170E1
2.897664833E0,-5.571332324E0,-1.702468877E1,-2.615038854E0,1.810298870E1
2.907702833E0,-5.075972586E0,-1.829498234E1,-2.629884642E0,1.916737253E1
2.917740833E0,-5.247993577E0,-1.966438972E1,-2.757059244E0,2.053852564E1
2.927778833E0,-6.097973496E0,-2.074475403E1,-2.993534678E0,2.182868183E1
2.937816833E0,-7.175758013E0,-2.147630854E1,-3.359836426E0,2.289130473E1
2.947854833E0,-8.808411135E0,-2.185880064E1,-3.669984731E0,2.385087126E1
2.957892833E0,-1.101424342E1,-2.169946869E1,-3.457199584E0,2.457911163E1
2.967930833E0,-1.364460636E1,-2.103530685E1,-2.911642084E0,2.524157437E1
2.977968833E0,-1.651840761E1,-2.044261203E1,-2.473221655E0,2.639839013E1
2.988005833E0,-1.926688314E1,-1.980014804E1,-1.732401944E0,2.768139925E1
2.998043833E0,-2.090617227E1,-1.895556919E1,-5.025792950E-1,2.822470953E1
3.008081833E0,-2.168885716E1,-1.827547954E1,1.499302107E-1,2.836233694E1
3.018119833E0,-2.151709871E1,-1.768924939E1,-5.153637935E-1,2.785966046E1
3.028157833E0,-2.042568784E1,-1.759299253E1,-1.738133969E0,2.701375982E1
3.038195833E0,-2.011799566E1,-1.736217837E1,-2.601465420E0,2.670106008E1
3.048233833E0,-2.123456359E1,-1.582000681E1,-2.346186656E0,2.658352682E1
3.058271833E0,-2.275287266E1,-1.405077034E1,-1.314011737E0,2.677394233E1
3.068309833E0,-2.425778926E1,-1.283916176E1,1.634998441E-1,2.744651429E1
3.078347833E0,-2.333666802E1,-1.212915542E1,1.041561016E0,2.632111956E1
3.088385833E0,-1.206819235E1,-1.295999097E1,-3.398872438E-1,1.771209066E1
3.098422833E0,1.069831836E1,-1.376082328E1,-5.865713904E0,1.839078228E1
3.108460833E0,4.142562840E1,-1.186095065E1,-1.172843988E1,4.465782284E1
3.118498833E0,7.054898638E1,-4.836395203E0,-9.929700691E0,7.140832692E1
3.128536833E0,8.078944436E1,-2.105550051E0,8.020374280E0,8.121387852E1
3.138574833E0,7.182959209E1,-4.009588678E0,3.298366168E1,7.914220770E1
3.148612833E0,5.727724760E1,-4.120593681E0,5.772670202E1,8.142502386E1
3.158650833E0,4.705469145E1,-4.615092124E0,7.141342471E1,8.564648441E1
3.168688833E0,3.918032098E1,-4.573041288E0,5.978105341E1,7.162251465E1
3.178727292E0,3.316125098E1,-6.825051373E0,3.480502258E1,4.855552996E1
3.188765292E0,2.499539213E1,-8.176147614E0,1.539322088E1,3.047245094E1
3.198803292E0,1.512879576E1,-8.710797132E0,3.622743030E0,1.782926568E1
3.208841292E0,6.045074905E0,-8.245027814E0,-1.835813169E0,1.038718558E1
3.218878292E0,-8.564369988E-1,-7.008339365E0,-3.467893556E0,7.866167472E0
3.228916292E0,-5.064521983E0,-6.666759644E0,-4.356373589E0,9.437852400E0
3.238954292E0,-6.757034807E0,-6.665329415E0,-5.492307204E0,1.096583668E1
3.248992292E0,-7.223927960E0,-7.373973945E0,-6.309721055E0,1.209847952E1
3.259030292E0,-7.091464552E0,-8.593494970E0,-6.902287245E0,1.310643332E1
3.269068292E0,-6.537698146E0,-1.002622770E1,-7.357807564E0,1.405005591E1
3.279106292E0,-5.907122716E0,-1.149560492E1,-7.684465774E0,1.503642396E1
3.289144292E0,-5.338366973E0,-1.294277910E1,-7.705040372E0,1.598065518E1
3.299182292E0,-4.988835624E0,-1.435727436E1,-7.443213750E0,1.692398413E1
3.309220292E0,-4.866711262E0,-1.573551221E1,-7.297826825E0,1.801525740E1
3.319258292E0,-5.694011586E0,-1.674800204E1,-7.404587628E0,1.917668528E1
3.329296292E0,-7.130465480E0,-1.742457518E1,-7.805821227E0,2.038112369E1
3.339333292E0,-8.343558075E0,-1.791712006E1,-8.020677751E0,2.133001229E1
3.349371292E0,-9.306609696E0,-1.801846868E1,-7.812078917E0,2.173262006E1
3.359409292E0,-1.024291147E1,-1.803033853E1,-7.627595755E0,2.209503474E1
3.369447292E0,-1.122070510E1,-1.804639498E1,-7.261170630E0,2.245665144E1
3.379485292E0,-1.199947470E1,-1.785549275E1,-6.560715126E0,2.249108706E1
3.389523292E0,-1.292293833E1,-1.761733683E1,-5.947075571E0,2.264377618E1
3.399561292E0,-1.406864644E1,-1.725870253E1,-5.800469502E0,2.300945615E1
3.409599292E0,-1.469746888E1,-1.667114624E1,-5.388599818E0,2.286874977E1
3.419637292E0,-1.506120077E1,-1.600730600E1,-4.397589151E0,2.241455787E1
3.429675292E0,-1.490080346E1,-1.508314888E1,-3.177362368E0,2.143900547E1
3.439713292E0,-1.459541625E1,-1.431216660E1,-2.579372301E0,2.060382125E1
3.449751292E0,-1.428869471E1,-1.394325641E1,-2.938193706E0,2.017954851E1
3.459789292E0,-1.477431416E1,-1.401654073E1,-3.348479672E0,2.063870367E1
3.469826292E0,-1.633031437E1,-1.353083475E1,-2.860153257E0,2.139960591E1
3.479864292E0,-1.766076293E1,-1.162892378E1,-1.645074070E0,2.120944799E1
3.489902292E0,-1.829508408E1,-9.304080775E0,-3.965529031E-1,2.052884008E1
3.499940292E0,-1.561523498E1,-7.974844936E0,1.201249060E-1,1.753419931E1
3.509978292E0,-5.290282395E0,-8.857767482E0,-1.449944152E0,1.041870772E1
3.520016292E0,1.422737730E1,-1.119770449E1,-3.916301322E0,1.852415360E1
3.530054292E0,3.850555229E1,-9.451606611E0,-4.531806723E0,3.990673749E1
3.540092292E0,5.786716617E1,-3.248704246E0,-1.085137683E0,5.796844421E1
3.550130292E0,6.441285746E1,-9.139987439E-2,1.054854076E1,6.527094509E1
3.560168292E0,5.918213480E1,8.298364069E-1,2.709826371E1,6.509631022E1
3.570206292E0,4.846825350E1,2.171736585E0,3.920164460E1,6.237513107E1
3.580244292E0,4.341218951E1,1.198647268E0,4.154173539E1,6.009800939E1
3.590282292E0,4.020775629E1,5.770829089E-1,3.270635631E1,5.183341040E1
3.600320292E0,3.556012266E1,3.577482949E-1,2.048335776E1,4.103922821E1
3.610357292E0,2.880412105E1,-3.330002470E-1,1.070627174E1,3.073129567E1
3.620395292E0,2.033503027E1,-1.579111046E0,2.587910112E0,2.055977448E1
3.630433292E0,1.234583101E1,-2.878084621E0,-3.584471249E0,1.317388889E1
3.640471292E0,6.383127000E0,-3.245550550E0,-7.498409126E0,1.036841589E1
3.650509292E0,2.159263889E0,-3.224566355E0,-9.511897252E0,1.027309292E1
3.660547292E0,-8.031396282E-1,-3.762059959E0,-9.860576077E0,1.058437948E1
3.670585292E0,-3.056595145E0,-4.859000539E0,-9.099054590E0,1.075850615E1
3.680623292E0,-5.192387726E0,-6.617536613E0,-8.022829526E0,1.162404726E1
3.690661292E0,-6.820089426E0,-9.015657508E0,-6.773698202E0,1.317872101E1
3.700699292E0,-7.875570908E0,-1.128180265E1,-5.330198997E0,1.475515874E1
3.710737292E0,-8.373054940E0,-1.306903218E1,-4.208701866E0,1.608169216E1
3.720775292E0,-8.317985278E0,-1.460365732E1,-3.193420576E0,1.710712194E1
3.730813292E0,-7.644711140E0,-1.602262570E1,-2.277357180E0,1.789839374E1
3.740851292E0,-6.644177697E0,-1.718299512E1,-1.658677325E0,1.849734114E1
3.750889292E0,-5.704482780E0,-1.814961471E1,-1.674782896E0,1.909854800E1
3.760926292E0,-5.446022984E0,-1.903591929E1,-1.783905973E0,1.987983174E1
3.770964292E0,-5.802449369E0,-1.967785001E1,-1.571834332E0,2.057563761E1
3.781002292E0,-6.876990436E0,-1.989596051E1,-1.520476044E0,2.110578332E1
3.791040292E0,-8.487066289E0,-1.990878463E1,-1.510342820E0,2.169495644E1
3.801078292E0,-1.062391137E1,-2.035796072E1,-1.270851392E0,2.299845909E1
3.811116292E0,-1.386882720E1,-2.099692807E1,-5.607117283E-1,2.517001696E1
3.821154292E0,-1.697338647E1,-2.089412700E1,7.893834686E-1,2.693108831E1
3.831192292E0,-1.872952753E1,-1.908157903E1,2.927127265E0,2.689739641E1
3.841230292E0,-1.902117963E1,-1.730977913E1,5.425156610E0,2.628433093E1
3.851268292E0,-1.980182034E1,-1.598015737E1,6.502041825E0,2.626316939E1
3.861306292E0,-2.180764218E1,-1.522259445E1,4.873757157E0,2.703801302E1
3.871344292E0,-2.488369394E1,-1.538624983E1,3.530671602E-1,2.925849559E1
3.881382292E0,-2.843992372E1,-1.569470800E1,-4.827244311E0,3.283984482E1
3.891420292E0,-3.142927530E1,-1.487107856E1,-7.321418002E0,3.553240049E1
3.901458292E0,-3.345170557E1,-1.370902046E1,-5.889218541E0,3.662835981E1
3.911495292E0,-3.333052553E1,-1.243718206E1,-3.086448689E0,3.570901280E1
3.921533292E0,-2.738383003E1,-1.289678490E1,-1.063593909E-1,3.026900263E1
3.931571292E0,-8.859963112E0,-1.723081131E1,4.623708581E0,1.991929933E1
3.941609292E0,2.274108467E1,-1.993939831E1,8.929687650E0,3.153531129E1
3.951647292E0,5.408822296E1,-1.645366373E1,1.331988475E1,5.808337321E1
3.961685292E0,7.420486675E1,-9.476978849E0,2.393913004E1,7.854461996E1
3.971723292E0,8.102575607E1,-2.424327238E-1,4.868839415E1,9.452931633E1
3.981761292E0,7.113501304E1,2.020040661E0,6.677371990E1,9.758586124E1
3.991799292E0,5.332404333E1,-2.744118186E0,6.318240682E1,8.272242933E1
4.001837292E0,3.825836476E1,-6.018855990E0,4.982418539E1,6.310608965E1
4.011875292E0,2.773678902E1,-7.689525370E0,3.245147852E1,4.337691464E1
4.021913292E0,1.992115032E1,-6.491086482E0,1.759085479E1,2.735735012E1
4.031951292E0,1.369441295E1,-5.376132385E0,8.316738067E0,1.689993720E1
4.041989292E0,8.168077286E0,-4.496502697E0,3.064484501E0,9.814636433E0
4.052027292E0,4.799016293E0,-3.726939828E0,-4.094091761E-1,6.090012622E0
4.062065292E0,3.371517409E0,-3.751597536E0,-2.675795810E0,5.709772056E0
4.072102292E0,1.974381947E0,-4.475766424E0,-3.720632144E0,6.146037154E0
4.082140292E0,5.002445018E-1,-5.713555904E0,-4.409687040E0,7.234660007E0
4.092178292E0,-8.778793234E-1,-7.437749527E0,-5.226501551E0,9.132749235E0
4.102216292E0,-1.771249675E0,-9.046574076E0,-6.031422826E0,1.101616491E1
4.112254292E0,-1.955664425E0,-1.048436874E1,-6.519560668E0,1.250005130E1
4.122292292E0,-2.073245500E0,-1.189029081E1,-6.740852637E0,1.382448758E1
4.132330292E0,-2.688978943E0,-1.340426241E1,-6.727095893E0,1.523675417E1
4.142368292E0,-3.245153816E0,-1.499891039E1,-6.415061569E0,1.663283954E1
4.152406292E0,-3.392909448E0,-1.619910052E1,-6.012422299E0,1.760885896E1
4.162444292E0,-3.349017323E0,-1.718090533E1,-6.038995555E0,1.851671926E1
4.172482292E0,-4.101542868E0,-1.805292983E1,-6.130170019E0,1.950153619E1
4.182520708E0,-5.444657074E0,-1.861633713E1,-6.306163024E0,2.039558753E1
4.192558708E0,-6.936315701E0,-1.916257232E1,-6.701824227E0,2.145299749E1
4.202596708E0,-8.562999401E0,-1.943898190E1,-7.020809137E0,2.237165029E1
4.212634708E0,-1.015108680E1,-1.899683533E1,-7.039581038E0,2.266009746E1
4.222672708E0,-1.151163097E1,-1.826516505E1,-6.994377383E0,2.269482798E1
4.232710708E0,-1.289061492E1,-1.769234374E1,-6.917548478E0,2.295733994E1
4.242748708E0,-1.446489354E1,-1.723466814E1,-6.576133064E0,2.344168204E1
4.252785708E0,-1.643360427E1,-1.646083592E1,-6.238319535E0,2.408192474E1
4.262823708E0,-1.795947262E1,-1.570660825E1,-6.319273067E0,2.468143860E1
4.272861708E0,-1.831529791E1,-1.539080481E1,-6.143567744E0,2.469960394E1
4.282899708E0,-1.808122334E1,-1.491319722E1,-4.782803133E0,2.392089661E1
4.292937708E0,-1.796488129E1,-1.432124850E1,-3.120125728E0,2.318556238E1
4.302975708E0,-1.827192443E1,-1.409776090E1,-2.348198537E0,2.319750248E1
4.313013708E0,-1.950926660E1,-1.397936998E1,-1.939321896E0,2.407893764E1
4.323051708E0,-2.143660126E1,-1.323002240E1,-8.016754854E-1,2.520325475E1
4.333089708E0,-2.214935814E1,-1.175642232E1,7.302071612E-1,2.508666447E1
4.343127708E0,-1.962197168E1,-1.071605881E1,1.312064322E0,2.239591931E1
4.353165708E0,-1.075050359E1,-1.179912453E1,4.536533028E-2,1.596229072E1
4.363203708E0,4.810485606E0,-1.442989210E1,-2.523892164E0,1.541857936E1
4.373241708E0,2.434072149E1,-1.451078249E1,-5.306919478E0,2.883048604E1
4.383279708E0,4.266992992E1,-8.436839876E0,-6.672126803E0,4.400477773E1
4.393317708E0,5.675196181E1,-6.389465382E0,-4.911785694E0,5.732134050E1
4.403355708E0,5.923572337E1,-8.621772689E0,3.512883203E0,5.996287381E1
4.413393708E0,5.257042611E1,-8.546503236E0,1.394884050E1,5.505690302E1
4.423431708E0,4.519049151E1,-4.408530168E0,2.409124419E1,5.140042517E1
4.433469708E0,3.971355430E1,-1.710402672E0,3.335650354E1,5.189169684E1
4.443507708E0,3.255894801E1,-1.732175218E0,3.625921108E1,4.876285384E1
4.453544708E0,2.448772283E1,-7.575933997E-1,3.296268188E1,4.107019495E1
4.463582708E0,1.674130113E1,-2.783739504E-1,2.552371847E1,3.052554438E1
4.473620708E0,1.008155873E1,-1.483578944E0,1.606671137E1,1.902572067E1
4.483658708E0,4.698836532E0,-3.298722205E0,7.350030182E0,9.326498626E0
4.493696708E0,7.284765315E-1,-4.000668458E0,7.012597892E-1,4.126474459E0
4.503734708E0,-1.600857133E0,-4.014309135E0,-3.913483841E0,5.830332509E0
4.513772708E0,-2.984180887E0,-3.960748639E0,-6.660719470E0,8.304098339E0
4.523810708E0,-3.809497835E0,-4.141793931E0,-7.960825651E0,9.748921775E0
4.533848708E0,-4.576136220E0,-4.604981704E0,-8.036579254E0,1.033118993E1
4.543886708E0,-5.847584612E0,-5.406906281E0,-7.006202792E0,1.060734457E1
4.553924708E0,-7.206649438E0,-6.300715758E0,-5.555448947E0,1.106787370E1
4.563962708E0,-7.756692336E0,-7.184186774E0,-4.323804891E0,1.142252618E1
4.574000708E0,-7.391395140E0,-8.283936356E0,-3.284119661E0,1.157764076E1
4.584038708E0,-6.755756605E0,-9.527613398E0,-2.299881386E0,1.190399592E1
4.594076708E0,-6.457831612E0,-1.050057488E1,-1.490999061E0,1.241727587E1
4.604114708E0,-6.344734767E0,-1.143647320E1,-9.575300950E-1,1.311355949E1
4.614152708E0,-6.422072965E0,-1.257856890E1,-9.151115421E-1,1.415276814E1
4.624190708E0,-6.950107529E0,-1.380712621E1,-1.240155264E0,1.550737612E1
4.634228708E0,-8.134956903E0,-1.506578382E1,-1.565549891E0,1.719320542E1
4.644266708E0,-9.599349963E0,-1.587559512E1,-1.742103644E0,1.863375876E1
4.654303708E0,-1.098453138E1,-1.600362576E1,-1.698024409E0,1.948484678E1
4.664341708E0,-1.260574325E1,-1.571702448E1,-1.772228499E0,2.022548925E1
4.674379708E0,-1.500832323E1,-1.519046049E1,-2.374506329E0,2.148576591E1
4.684417708E0,-1.772548576E1,-1.403159848E1,-3.116622661E0,2.282086629E1
4.694455708E0,-2.078669962E1,-1.184373177E1,-3.654433769E0,2.420156502E1
4.704493708E0,-2.462105572E1,-9.045582388E0,-3.751567131E0,2.649704137E1
4.714531708E0,-2.916239165E1,-5.841375453E0,-2.995210490E0,2.989210665E1
4.724569708E0,-3.407171157E1,-2.980849144E0,-1.940781507E0,3.425687703E1
4.734607708E0,-3.768920848E1,-2.483768570E0,-2.120771961E-1,3.777155701E1
4.744645708E0,-3.694025266E1,-7.077953390E0,3.259898155E0,3.775323333E1
4.754683708E0,-2.729373146E1,-1.688481519E1,7.402256343E0,3.293688145E1
4.764721708E0,-7.623567023E0,-2.645706740E1,6.372322515E0,2.826131072E1
4.774759708E0,1.774179481E1,-3.139806052E1,-6.954163742E-1,3.607066802E1
4.784797708E0,4.455201299E1,-2.734560561E1,-3.428087759E0,5.238717203E1
4.794835708E0,6.928986567E1,-2.169927924E1,1.228323189E1,7.363981253E1
4.804873708E0,7.182922723E1,-1.778200260E1,3.947763084E1,8.386966578E1
4.814911708E0,5.055818403E1,-1.357087414E1,5.496055269E1,7.590099439E1
4.824949708E0,3.638757852E1,-1.443513121E1,5.905982976E1,7.085543293E1
4.834987708E0,2.714441462E1,-1.482822665E1,5.259966219E1,6.101983295E1
4.845025708E0,1.985016980E1,-1.451938023E1,3.510891174E1,4.286580603E1
4.855063708E0,1.461331692E1,-1.329227771E1,1.747630783E1,2.637527277E1
4.865101708E0,9.212266041E0,-1.053921445E1,5.771516429E0,1.514104649E1
4.875139708E0,4.511878243E0,-8.564831918E0,-1.322344896E0,9.770465040E0
4.885177708E0,8.504377556E-1,-6.747124946E0,-4.876080841E0,8.367980866E0
4.895215708E0,-1.960605907E0,-5.041068217E0,-5.879970585E0,7.989392866E0
4.905252708E0,-4.028522254E0,-4.206726969E0,-5.646095408E0,8.111962567E0
4.915290708E0,-5.196771968E0,-4.000210036E0,-5.181762750E0,8.358156760E0
4.925328708E0,-5.479773113E0,-4.228489136E0,-4.923563156E0,8.494086642E0
4.935366708E0,-5.120792663E0,-4.778190557E0,-4.709386663E0,8.439901969E0
4.945404708E0,-4.693062991E0,-5.705990776E0,-4.478226932E0,8.639310588E0
4.955442708E0,-4.562874150E0,-7.011573460E0,-4.416500800E0,9.459781298E0
4.965480708E0,-4.811270303E0,-8.629289285E0,-4.350139873E0,1.079521525E1
4.975518708E0,-5.227896112E0,-1.027014313E1,-4.305037082E0,1.230203568E1
4.985556708E0,-5.846425109E0,-1.193738545E1,-4.422647978E0,1.400862853E1
4.995594708E0,-6.407056146E0,-1.357035608E1,-4.489821376E0,1.566408084E1
5.005632708E0,-6.533268880E0,-1.485303171E1,-4.417553884E0,1.681698355E1
5.015670708E0,-6.648663096E0,-1.602033242E1,-4.068817756E0,1.781603350E1
5.025708708E0,-7.068137085E0,-1.719023982E1,-3.673893887E0,1.894625038E1
5.035746708E0,-7.585688760E0,-1.801904639E1,-3.720395039E0,1.990150863E1
5.045784708E0,-8.560793831E0,-1.836801757E1,-4.048084699E0,2.066538774E1
5.055822708E0,-1.013794577E1,-1.850420858E1,-4.366953249E0,2.154655333E1
5.065860708E0,-1.198352934E1,-1.851616263E1,-4.702861170E0,2.255150011E1
5.075898708E0,-1.396372401E1,-1.775323898E1,-4.999893293E0,2.313356901E1
5.085936708E0,-1.608617441E1,-1.635197714E1,-5.268084610E0,2.353518385E1
5.095974708E0,-1.897389670E1,-1.484641500E1,-5.530797086E0,2.471870771E1
5.106012708E0,-2.266694198E1,-1.343454397E1,-5.799919279E0,2.697992391E1
5.116050708E0,-2.723035232E1,-1.223961868E1,-5.652171249E0,3.038498630E1
5.126088708E0,-3.123740944E1,-1.054003891E1,-5.672163464E0,3.345207927E1
5.136126708E0,-3.361110769E1,-8.930852416E0,-6.710450624E0,3.541887678E1
5.146164708E0,-3.287317504E1,-7.994026726E0,-7.538626860E0,3.466094337E1
5.156202708E0,-2.507997561E1,-9.693638070E0,-7.671911218E0,2.796122346E1
5.166240708E0,-6.907750298E0,-1.335704264E1,-8.151509786E0,1.710481552E1
5.176278667E0,2.117169667E1,-1.220887635E1,-8.899841707E0,2.600970173E1
5.186315667E0,4.967713025E1,-2.297649357E0,-1.088115260E1,5.090673771E1
5.196353667E0,6.072481273E1,-2.928030953E0,-1.409061092E1,6.240690316E1
5.206391667E0,5.852655902E1,-1.235843878E1,-7.146694427E0,6.024254610E1
5.216429667E0,5.432970361E1,-5.885246528E0,1.263634290E1,5.608948193E1
5.226467667E0,4.941681221E1,4.296850981E0,3.066796782E1,5.831816619E1
5.236505667E0,3.903788280E1,6.424829342E0,3.846108071E1,5.517689240E1
5.246543667E0,2.888027987E1,4.966580536E0,3.669957659E1,4.696377763E1
5.256581667E0,2.158795059E1,3.552659472E0,2.978849513E1,3.695964613E1
5.266619667E0,1.636617652E1,1.755158722E0,1.929808739E1,2.536431534E1
5.276657667E0,1.104696210E1,-5.958543715E-1,8.670402812E0,1.405582794E1
5.286695667E0,5.771221145E0,-1.837974884E0,1.305073975E0,6.195834347E0
5.296733667E0,1.099102296E0,-2.575793805E0,-3.171333303E0,4.230850328E0
5.306771667E0,-2.143404486E0,-3.132427685E0,-6.108114907E0,7.191338798E0
5.316809667E0,-4.092368587E0,-3.212214112E0,-8.387177135E0,9.869677828E0
5.326847667E0,-5.664351000E0,-3.375688228E0,-9.120898034E0,1.125481782E1
5.336885667E0,-7.305649230E0,-3.656359842E0,-7.818269949E0,1.130782132E1
5.346923667E0,-8.947964292E0,-4.436401799E0,-6.353086930E0,1.183678332E1
5.356961667E0,-1.013850827E1,-5.801622573E0,-5.807863306E0,1.304528461E1
5.366999667E0,-1.032983384E1,-6.892416560E0,-5.529124197E0,1.359345753E1
5.377037667E0,-1.003669538E1,-7.644586009E0,-4.755472078E0,1.348293233E1
5.387075667E0,-9.536548528E0,-8.409173191E0,-3.592387210E0,1.321231234E1
5.397113667E0,-9.039359781E0,-9.055234387E0,-2.366310872E0,1.301179166E1
5.407151667E0,-8.595136868E0,-9.550583015E0,-1.342048844E0,1.291863417E1
5.417189667E0,-8.409104193E0,-9.878260396E0,-5.237859768E-1,1.298335140E1
5.427227667E0,-8.682002519E0,-1.017378920E1,-3.405433014E-2,1.337476408E1
5.437265667E0,-9.389492809E0,-1.057752541E1,2.105962425E-1,1.414535152E1
5.447303667E0,-1.028568386E1,-1.088333596E1,2.945879871E-1,1.497761917E1
5.457341667E0,-1.116474724E1,-1.085038105E1,3.674833243E-1,1.557296998E1
5.467379667E0,-1.208186781E1,-1.067777592E1,2.936091632E-1,1.612676765E1
5.477417667E0,-1.308994066E1,-1.025743245E1,-1.204092269E-1,1.663057321E1
5.487455667E0,-1.399933121E1,-9.860553857E0,-1.019560428E0,1.715375470E1
5.497493667E0,-1.476714547E1,-9.598203324E0,-1.861578193E0,1.771043663E1
5.507531667E0,-1.514821670E1,-9.031722733E0,-2.180686333E0,1.777064652E1
5.517569667E0,-1.523148105E1,-8.046144714E0,-2.279932294E0,1.737632156E1
5.527607667E0,-1.533913180E1,-6.856801754E0,-2.382103617E0,1.696994733E1
5.537644667E0,-1.622117492E1,-5.493642123E0,-2.227844858E0,1.727049254E1
5.547682667E0,-1.809703655E1,-3.960103984E0,-1.663410646E0,1.859978738E1
5.557720667E0,-2.013641907E1,-2.677518985E0,-3.039026016E-1,2.031592572E1
5.567758667E0,-2.037354939E1,-2.125576326E0,1.709271820E0,2.055532047E1
5.577796667E0,-1.526750107E1,-3.077298966E0,3.287485611E0,1.591772344E1
5.587834667E0,-3.709822689E0,-5.366413727E0,2.447874560E0,6.968017691E0
5.597872667E0,1.212147685E1,-5.945207970E0,-1.757263720E-2,1.350096321E1
5.607910667E0,2.809830599E1,-2.316310161E0,-1.406257703E0,2.822866722E1
5.617948667E0,4.072257790E1,4.904936850E-3,-2.604170050E-1,4.072341086E1
5.627986667E0,4.963430524E1,-1.587924993E0,3.342638596E0,4.977207044E1
5.638024667E0,5.370330777E1,-4.139550062E0,8.159031644E0,5.447706800E1
5.648062667E0,5.060812860E1,-3.106148836E0,1.354474528E1,5.248133922E1
5.658100667E0,4.067771338E1,1.830855314E-1,1.679276364E1,4.400803105E1
5.668138667E0,2.909309045E1,2.320316381E0,1.648051531E1,3.351714733E1
5.678176667E0,2.021852099E1,2.811511440E0,1.451911360E1,2.504990713E1
5.688214667E0,1.328609837E1,3.196399148E0,1.176830620E1,1.803414562E1
5.698252667E0,7.963859187E0,2.606061916E0,8.445493755E0,1.189709950E1
5.708290667E0,3.886404508E0,1.564374308E0,5.257066702E0,6.722213719E0
5.718328667E0,9.798921865E-1,7.536838782E-1,2.323388801E0,2.631798549E0
5.728366667E0,-7.456176442E-1,1.219878289E-1,-3.027752584E-1,8.139407588E-1
5.738404667E0,-1.894127743E0,-5.486755273E-1,-2.330676624E0,3.053001517E0
5.748442667E0,-2.917533739E0,-1.284758994E0,-3.619436429E0,4.823165854E0
5.758480667E0,-3.609407870E0,-1.977882675E0,-4.161297904E0,5.852883502E0
5.768518667E0,-4.025675830E0,-2.716421972E0,-4.188933599E0,6.413437371E0
5.778556667E0,-4.438230223E0,-3.581269021E0,-4.000170860E0,6.965970300E0
5.788594667E0,-5.118547917E0,-4.529997595E0,-3.819366766E0,7.829940835E0
5.798632667E0,-5.755598554E0,-5.533166378E0,-3.602685910E0,8.759120427E0
5.808670667E0,-6.361151994E0,-6.329751862E0,-3.294339425E0,9.559429145E0
5.818708667E0,-7.039928362E0,-6.933047692E0,-2.857736603E0,1.028564048E1
5.828746667E0,-7.826861263E0,-7.666188548E0,-2.508015804E0,1.123923251E1
5.838784667E0,-8.541431946E0,-8.636941536E0,-2.500243685E0,1.240177557E1
5.848822667E0,-9.056071123E0,-9.675497668E0,-2.852811493E0,1.355603971E1
5.858860667E0,-9.231332642E0,-1.066049389E1,-3.232800989E0,1.446771007E1
5.868898667E0,-9.532196445E0,-1.151284251E1,-3.354309053E0,1.531860637E1
5.878936667E0,-1.014233001E1,-1.220290050E1,-3.495574860E0,1.624797471E1
5.888974667E0,-1.092482546E1,-1.255502567E1,-3.756415642E0,1.706139324E1
5.899012667E0,-1.163242392E1,-1.237091206E1,-3.951477002E0,1.743464717E1
5.909050667E0,-1.206055705E1,-1.188028389E1,-3.951466477E0,1.738425348E1
5.919088667E0,-1.256791411E1,-1.120017552E1,-3.877391025E0,1.727514277E1
5.929126667E0,-1.354613925E1,-1.034023721E1,-3.867396964E0,1.747498651E1
5.939164667E0,-1.471112096E1,-9.369381895E0,-3.915303787E0,1.787545805E1
5.949202667E0,-1.612725812E1,-8.285731452E0,-3.885046200E0,1.854279871E1
5.959240667E0,-1.816569105E1,-6.891154146E0,-4.167478995E0,1.987078805E1
5.969278667E0,-2.019993153E1,-5.349718757E0,-4.941769631E0,2.147272250E1
5.979316667E0,-2.085573886E1,-4.056816346E0,-6.291996390E0,2.215871885E1
5.989354667E0,-1.857083176E1,-3.865651571E0,-7.803626182E0,2.051135383E1
5.999392667E0,-1.243022153E1,-5.377734522E0,-8.209734605E0,1.583761908E1
6.009430667E0,-1.558693446E0,-6.687395053E0,-6.732741964E0,9.616683015E0
6.019468667E0,1.136154230E1,-5.586198869E0,-6.117799065E0,1.406121356E1
6.029506667E0,2.332034026E1,-5.245414955E0,-7.856804270E0,2.516112122E1
6.039544667E0,2.966402428E1,-7.378223702E0,-1.071134829E1,3.239020691E1
6.049582667E0,3.192172312E1,-1.013676697E1,-1.050101576E1,3.510016786E1
6.059620667E0,3.438625201E1,-7.672356191E0,-2.939954595E0,3.535424600E1
6.069658667E0,3.925014141E1,-7.061292042E-1,6.333708673E0,3.976415578E1
6.079695667E0,4.006340023E1,3.885715706E0,1.658688786E1,4.353503960E1
6.089733667E0,3.738826866E1,4.986206716E0,2.277145979E1,4.406000763E1
6.099771667E0,3.137627847E1,5.389521339E0,2.433338440E1,4.007033052E1
6.109809667E0,2.477183202E1,5.135946307E0,2.085812920E1,3.278846078E1
6.119847667E0,1.813671459E1,3.775392780E0,1.452509296E1,2.354086515E1
6.129885667E0,1.200511258E1,2.190870867E0,8.593033040E0,1.492524238E1
6.139923667E0,6.583047981E0,1.376379016E0,4.424134048E0,8.050087080E0
6.149961667E0,2.627588441E0,9.675940302E-1,1.723062771E0,3.287765888E0
6.159999667E0,-3.022531021E-1,4.161138859E-1,-5.840608299E-2,5.176089009E-1
6.170037667E0,-2.392940261E0,-4.037350380E-1,-1.435368066E0,2.819476292E0
6.180075333E0,-3.676391233E0,-1.533112170E0,-2.631119574E0,4.773790490E0
6.190113333E0,-4.503244244E0,-2.788578660E0,-2.975425851E0,6.075239803E0
6.200151333E0,-5.168552136E0,-4.171285533E0,-2.449585894E0,7.079126021E0
6.210189333E0,-5.631016608E0,-5.756156963E0,-1.740564657E0,8.238401322E0
6.220227333E0,-5.675966493E0,-7.276721300E0,-1.145932061E0,9.299485406E0
6.230265333E0,-5.392146739E0,-8.587533149E0,-6.254085383E-1,1.015933600E1
6.240303333E0,-4.926736439E0,-9.811737792E0,-3.773765208E-1,1.098568812E1
6.250341333E0,-4.591453586E0,-1.137116214E1,-4.655484398E-1,1.227198068E1
6.260379333E0,-4.567695179E0,-1.305169636E1,-5.653088093E-1,1.383944331E1
6.270417333E0,-4.734136757E0,-1.474156156E1,-8.869251122E-1,1.550845976E1
6.280455333E0,-5.216608062E0,-1.651108338E1,-1.405869741E0,1.737254570E1
6.290493333E0,-6.210940533E0,-1.798843037E1,-1.434251979E0,1.908445671E1
6.300531333E0,-7.996898879E0,-1.897774417E1,-1.026986246E0,2.061940509E1
6.310569333E0,-1.077722770E1,-1.925707385E1,-5.764001003E-1,2.207522972E1
6.320607333E0,-1.445931529E1,-1.824799178E1,-5.878103569E-2,2.328227776E1
6.330645333E0,-1.839846870E1,-1.571602695E1,7.367227136E-1,2.420826128E1
6.340683333E0,-2.169960902E1,-1.309293326E1,1.721649353E0,2.540200799E1
6.350721333E0,-2.387119943E1,-1.149986170E1,2.361849885E0,2.660186678E1
6.360759333E0,-2.562939870E1,-9.735231653E0,1.942733307E0,2.748481446E1
6.370797333E0,-2.761578206E1,-7.511182369E0,-3.814805353E-1,2.862157939E1
6.380835333E0,-3.022970497E1,-5.150306484E0,-3.434066244E0,3.085698512E1
6.390873333E0,-3.090558931E1,-3.911127706E0,-5.728557521E0,3.167441778E1
6.400911333E0,-2.749640063E1,-4.544396363E0,-7.516044329E0,2.886510884E1
6.410949333E0,-1.857099314E1,-7.747571265E0,-8.432070302E0,2.181757219E1
6.420987333E0,-5.340736849E0,-1.079035119E1,-7.020299844E0,1.393699246E1
6.431025333E0,8.659653291E0,-1.081040714E1,-6.179605304E0,1.516713616E1
6.441063333E0,2.130143469E1,-1.022028977E1,-6.826093347E0,2.459270203E1
6.451101333E0,3.556335032E1,-1.101518833E1,-7.699139947E0,3.801793019E1
6.461139333E0,5.447542558E1,-1.518204284E1,-6.851908804E0,5.696503376E1
6.471177333E0,6.356259278E1,-9.713906858E0,4.475978093E0,6.445616780E1
6.481215333E0,6.175338942E1,5.147188456E-1,1.329782671E1,6.317102370E1
6.491253333E0,5.007373052E1,3.134168693E0,2.302697609E1,5.520365141E1
6.501291333E0,3.179025199E1,1.448579412E0,3.169631296E1,4.491519519E1
6.511329333E0,1.657537235E1,4.450813431E0,4.010577149E1,4.362368182E1
6.521367333E0,7.590562999E0,4.976445959E0,3.925571732E1,4.029135147E1
6.531405333E0,4.484223252E0,1.535082974E0,2.861938646E1,2.900920577E1
6.541443333E0,4.249665704E0,-1.408222952E0,1.648904640E1,1.708600016E1
6.551481333E0,3.185533267E0,-3.382870655E0,7.820704145E0,9.096969242E0
6.561519333E0,1.194472137E0,-5.849314218E0,1.507696370E0,6.157466107E0
6.571557333E0,-2.750729048E-1,-7.792566174E0,-2.382470822E0,8.153276635E0
6.581595333E0,-1.386754900E0,-8.544849644E0,-4.530210434E0,9.770381321E0
6.591633333E0,-2.454013844E0,-9.296900395E0,-5.677105531E0,1.116620204E1
6.601671333E0,-3.882315550E0,-1.043900136E1,-6.400811904E0,1.284583654E1
6.611709333E0,-4.930340663E0,-1.126563159E1,-6.530941104E0,1.392393285E1
6.621747333E0,-5.077405154E0,-1.205185523E1,-6.125615623E0,1.444127502E1
6.631785333E0,-4.892393403E0,-1.318177352E1,-5.784493740E0,1.520378355E1
6.641823333E0,-4.939257667E0,-1.451846573E1,-6.013395860E0,1.647249353E1
6.651861333E0,-5.587274172E0,-1.612778553E1,-6.735749187E0,1.834920750E1
6.661899333E0,-6.609745783E0,-1.777866969E1,-7.448163418E0,2.037756054E1
6.671937333E0,-7.874910173E0,-1.869487693E1,-7.777595547E0,2.172564443E1
6.681975333E0,-9.172821894E0,-1.915881256E1,-7.812454308E0,2.263261369E1
6.692013333E0,-1.075297228E1,-1.950852868E1,-7.649440953E0,2.355255933E1
6.702051333E0,-1.293808028E1,-1.945958982E1,-7.423853034E0,2.451903651E1
6.712089333E0,-1.456793902E1,-1.861246861E1,-7.396002746E0,2.476589775E1
6.722127333E0,-1.509557422E1,-1.727068231E1,-7.499776790E0,2.413295424E1
6.732165333E0,-1.517988405E1,-1.635823132E1,-7.644836270E0,2.358949201E1
6.742203333E0,-1.539935227E1,-1.600674700E1,-7.459979471E0,2.343090467E1
6.752241333E0,-1.554873343E1,-1.572406570E1,-6.789552927E0,2.313238817E1
6.762279333E0,-1.553752081E1,-1.523885673E1,-5.961435163E0,2.256492890E1
6.772317333E0,-1.592956726E1,-1.431362841E1,-4.856052373E0,2.195933323E1
6.782355333E0,-1.782041179E1,-1.290202869E1,-3.527529016E0,2.228167143E1
6.792393333E0,-2.037938491E1,-1.100465866E1,-2.426281377E0,2.328752205E1
6.802431333E0,-1.994086479E1,-9.136662712E0,-1.733584397E0,2.200277276E1
6.812469333E0,-1.316505282E1,-7.747556646E0,-2.286135897E0,1.544570060E1
6.822507333E0,2.807962765E0,-6.035203051E0,-5.724504815E0,8.779424021E0
6.832545333E0,2.440613780E1,-2.108815867E0,-1.061729232E1,2.669894310E1
6.842583333E0,4.265865649E1,2.692643100E0,-1.222976963E1,4.445872879E1
6.852621333E0,5.417794264E1,2.580680030E0,-6.241068311E0,5.459725553E1
6.862659333E0,5.788220521E1,3.046928236E0,8.118702228E0,5.852817080E1
6.872697333E0,5.246583112E1,6.222863590E0,2.487420507E1,5.839617748E1
6.882735333E0,4.206663760E1,7.794450147E0,3.773592773E1,5.704696043E1
6.892773333E0,3.217610039E1,7.994051285E0,4.447727622E1,5.547462836E1
6.902811333E0,2.477988247E1,7.876609958E0,4.272159592E1,5.001218169E1
6.912849333E0,2.014015895E1,5.839862194E0,3.316044173E1,3.923448596E1
6.922887333E0,1.646834609E1,2.676727272E0,2.110832221E1,2.690599483E1
6.932925333E0,1.205987761E1,-2.106430203E-2,1.132056384E1,1.654074537E1
6.942963333E0,7.131345486E0,-1.739995138E0,4.312927023E0,8.513812955E0
6.953001333E0,2.766804214E0,-2.899890350E0,-4.603989431E-1,4.034419015E0
6.963039333E0,-1.279081348E0,-3.781242335E0,-3.508007502E0,5.314128275E0
6.973077333E0,-4.740824218E0,-4.657311360E0,-4.966852432E0,8.296721428E0
6.983115333E0,-7.313819545E0,-5.675091750E0,-5.350650219E0,1.069243099E1
6.993153333E0,-8.897202274E0,-6.540117724E0,-5.261192497E0,1.223165952E1
7.003191333E0,-9.454775802E0,-7.573295002E0,-4.928806354E0,1.307825350E1
7.013229333E0,-9.605166773E0,-8.791519699E0,-4.618569463E0,1.381597739E1
7.023267333E0,-9.633238086E0,-1.013433921E1,-4.321178321E0,1.463477671E1
7.033305333E0,-9.659222528E0,-1.154590618E1,-4.289044363E0,1.565261738E1
7.043343333E0,-9.788023240E0,-1.294621493E1,-4.242049706E0,1.677512640E1
7.053381333E0,-9.573545031E0,-1.366767948E1,-3.593956017E0,1.706970259E1
7.063419333E0,-8.826216491E0,-1.402106414E1,-2.808446329E0,1.680415746E1
7.073457333E0,-8.014791359E0,-1.443039847E1,-2.317134619E0,1.666860502E1
7.083495333E0,-7.756544986E0,-1.487504999E1,-2.218115530E0,1.692191298E1
7.093533333E0,-7.906884502E0,-1.517370120E1,-2.188411090E0,1.724961373E1
7.103571333E0,-8.494002256E0,-1.518649374E1,-2.162407352E0,1.753435691E1
7.113609333E0,-9.279921834E0,-1.506712868E1,-2.217735461E0,1.783405917E1
7.123647333E0,-1.038974675E1,-1.481815658E1,-2.383832638E0,1.825396560E1
7.133685333E0,-1.180191482E1,-1.450305130E1,-2.697945063E0,1.889186592E1
7.143723333E0,-1.374229229E1,-1.392364953E1,-3.296534470E0,1.983899577E1
7.153761333E0,-1.575595174E1,-1.315937166E1,-3.861702361E0,2.088855722E1
7.163799333E0,-1.770489888E1,-1.223197286E1,-3.972573756E0,2.188300588E1
7.173837333E0,-1.947140120E1,-1.116221540E1,-3.650101567E0,2.273881612E1
7.183875167E0,-2.090926427E1,-9.763987091E0,-3.290981954E0,2.331015527E1
7.193913167E0,-2.271185327E1,-8.246300753E0,-3.009661884E0,2.434928787E1
7.203951167E0,-2.459568582E1,-7.265651937E0,-2.591754949E0,2.577701792E1
7.213989167E0,-2.481850216E1,-6.795727587E0,-1.454252380E0,2.577314131E1
7.224027167E0,-1.844038271E1,-8.329468040E0,-4.710125166E-1,2.023980250E1
7.234065167E0,-2.312882524E0,-1.045599337E1,-1.414259618E0,1.080172917E1
7.244103167E0,1.786312220E1,-1.021382625E1,-3.807262737E0,2.092626653E1
7.254141167E0,3.652927292E1,-6.528441419E0,-4.219077750E0,3.734714105E1
7.264179167E0,5.222817221E1,-5.093200822E0,2.838061892E0,5.255261423E1
7.274217167E0,6.118207902E1,-8.337348917E0,1.612840300E1,6.381914732E1
7.284255167E0,5.221922831E1,-5.189875177E0,2.883765367E1,5.987815026E1
7.294293167E0,3.513650826E1,1.235554674E-1,4.389208220E1,5.622369925E1
7.304331167E0,2.553700802E1,2.718606638E-1,5.329332908E1,5.909646022E1
7.314369167E0,1.832584044E1,-1.460276328E-2,5.024728523E1,5.348482321E1
7.324407167E0,1.341847582E1,1.459025024E-1,3.895189131E1,4.119862398E1
7.334445167E0,1.179325861E1,-1.359300761E0,2.479851404E1,2.749354371E1
7.344483167E0,9.226084181E0,-2.559845816E0,1.217187517E1,1.548638063E1
7.354521167E0,5.706065621E0,-2.461856714E0,3.083104082E0,6.937251194E0
7.364559167E0,1.978611823E0,-1.936535259E0,-3.261921292E0,4.278458142E0
7.374597167E0,-9.310118026E-1,-1.046193180E0,-7.654959555E0,7.782011882E0
7.384635167E0,-2.917816159E0,-6.857023948E-1,-9.898006443E0,1.034187461E1
7.394673167E0,-4.201029734E0,-1.009387296E0,-9.982764173E0,1.087764193E1
7.404711167E0,-5.084183246E0,-2.226533766E0,-8.496087958E0,1.014839310E1
7.414749167E0,-6.695302827E0,-4.439182150E0,-6.786525239E0,1.051619432E1
7.424787167E0,-8.944044904E0,-6.423500270E0,-5.852269986E0,1.247021888E1
7.434825167E0,-1.082892177E1,-7.293703954E0,-5.098184988E0,1.401624608E1
7.444863167E0,-1.041830456E1,-8.133769918E0,-4.255670502E0,1.388560457E1
7.454901167E0,-8.882717552E0,-8.907596285E0,-3.673460609E0,1.310504695E1
7.464940167E0,-8.299853062E0,-9.792454845E0,-3.208209646E0,1.323149054E1
7.474977167E0,-7.857920503E0,-1.049369505E1,-2.905336739E0,1.342778954E1
7.485016167E0,-7.431026398E0,-1.121796743E1,-2.775404591E0,1.373920730E1
7.495054167E0,-7.114763952E0,-1.189392076E1,-2.660280516E0,1.411248772E1
7.505092167E0,-6.867587528E0,-1.228625841E1,-2.644620503E0,1.432165918E1
7.515130167E0,-6.822512512E0,-1.295037347E1,-2.759115710E0,1.489535395E1
7.525168167E0,-7.255730966E0,-1.365729950E1,-3.003868462E0,1.575406891E1
7.535206167E0,-8.183143807E0,-1.404289764E1,-3.455787773E0,1.661653652E1
7.545244167E0,-9.325872179E0,-1.450811382E1,-4.327502085E0,1.778157846E1
7.555282167E0,-1.047648786E1,-1.489174730E1,-5.353895423E0,1.897854398E1
7.565320167E0,-1.197685182E1,-1.531536638E1,-6.183307176E0,2.040192918E1
7.575358167E0,-1.402399944E1,-1.522972806E1,-6.655606665E0,2.174659231E1
7.585396167E0,-1.513211698E1,-1.366862673E1,-7.029470032E0,2.156909293E1
7.595434167E0,-1.524220134E1,-1.232724973E1,-7.352107113E0,2.093655336E1
7.605472167E0,-1.540469429E1,-1.172495611E1,-7.649764888E0,2.081581381E1
7.615510167E0,-1.588372977E1,-1.175603172E1,-8.164811032E0,2.138133046E1
7.625548167E0,-1.661731209E1,-1.151639411E1,-8.748466650E0,2.202948168E1
7.635586167E0,-1.710138085E1,-1.030437741E1,-9.298307235E0,2.202489360E1
7.645624167E0,-1.584097259E1,-8.631214773E0,-1.011182041E1,2.068050273E1
7.655662167E0,-1.130137445E1,-6.914350051E0,-1.127492165E1,1.739692959E1
7.665700167E0,-4.259480841E0,-5.613109510E0,-1.170359155E1,1.366104793E1
7.675738167E0,6.520782151E0,-6.120408093E0,-1.046687387E1,1.376718721E1
7.685776167E0,2.066548216E1,-6.579319212E0,-8.883320400E0,2.343636012E1
7.695814167E0,3.548978767E1,-5.700137714E0,-5.093821796E0,3.630376866E1
7.705852167E0,4.745627355E1,-4.854447020E0,1.855181778E0,4.773997543E1
7.715890167E0,4.960709464E1,-6.333325680E0,1.036021948E1,5.107160660E1
7.725928167E0,4.451665838E1,-5.117548628E0,1.674044510E1,4.783476434E1
7.735966167E0,3.931801589E1,-2.276688697E0,2.700969945E1,4.775576980E1
7.746004167E0,3.508412656E1,4.734432042E-1,4.130647150E1,5.419727551E1
7.756042167E0,2.778398307E1,4.690888704E0,5.115064263E1,5.839813690E1
7.766080167E0,1.945230186E1,5.690979804E0,4.932887009E1,5.333026085E1
7.776118167E0,1.435950098E1,1.791553985E0,3.480836251E1,3.769651224E1
7.786156167E0,1.203822303E1,-2.125810945E0,1.943703478E1,2.296162465E1
7.796194167E0,8.671082259E0,-2.823173127E0,1.011418034E1,1.361817235E1
7.806232167E0,5.050989772E0,-2.846065561E0,3.207699476E0,6.625852608E0
7.816270167E0,1.528457494E0,-3.276546640E0,-1.963348251E0,4.114204243E0
7.826308167E0,-1.924960111E0,-3.688778852E0,-5.321855021E0,6.755346157E0
7.836346167E0,-4.435981384E0,-3.618116128E0,-6.628951548E0,8.758521209E0
7.846384167E0,-6.132654501E0,-3.511821933E0,-6.249466082E0,9.433884186E0
7.856422167E0,-7.137358763E0,-3.863712634E0,-5.160617464E0,9.617803181E0
7.866460167E0,-7.813247775E0,-4.705120534E0,-4.063033106E0,9.984650122E0
7.876498167E0,-8.331818036E0,-5.917425510E0,-3.400929489E0,1.077039636E1
7.886536167E0,-8.501735784E0,-7.353470684E0,-3.082813767E0,1.165576180E1
7.896574167E0,-8.365555885E0,-8.690723641E0,-3.006677172E0,1.243186673E1
7.906612167E0,-7.970758317E0,-9.740563729E0,-3.132768577E0,1.297018924E1
7.916650167E0,-7.314483204E0,-1.053812570E1,-3.340137449E0,1.325557528E1
7.926688167E0,-6.594482211E0,-1.139545615E1,-3.631953856E0,1.365777088E1
7.936726167E0,-6.188205389E0,-1.232813383E1,-4.081007739E0,1.438511014E1
7.946764167E0,-6.138540893E0,-1.325417491E1,-4.279214316E0,1.522059500E1
7.956802167E0,-6.490238636E0,-1.407657059E1,-4.102816684E0,1.603452967E1
7.966840167E0,-7.302839059E0,-1.487622177E1,-3.861824568E0,1.701608420E1
7.976878167E0,-8.498471868E0,-1.521498722E1,-3.764915155E0,1.782959468E1
7.986916167E0,-9.417719657E0,-1.500030670E1,-3.783440888E0,1.811124153E1
7.996954167E0,-1.071567523E1,-1.486241766E1,-3.893425845E0,1.873168223E1
8.006992167E0,-1.229999352E1,-1.457863358E1,-4.074386060E0,1.950453843E1
8.017030167E0,-1.395026839E1,-1.411385711E1,-4.322440150E0,2.030995913E1
8.027068167E0,-1.580284524E1,-1.306320836E1,-4.856377771E0,2.107039950E1
8.037106167E0,-1.806368520E1,-1.215416747E1,-5.420446678E0,2.243661632E1
8.047144167E0,-2.087658535E1,-1.123042668E1,-5.504467074E0,2.433625808E1
8.057183167E0,-2.445142799E1,-9.245709191E0,-5.191313592E0,2.665155167E1
8.067221167E0,-2.856289534E1,-6.067517688E0,-4.741931388E0,2.958275975E1
8.077259167E0,-3.180193940E1,-4.048640184E0,-4.036629126E0,3.231175037E1
8.087297167E0,-3.144149832E1,-5.048026403E0,-3.195649242E0,3.200410225E1
8.097335167E0,-2.309612059E1,-9.034018350E0,-3.177368799E0,2.500279877E1
8.107373167E0,-5.560873994E0,-1.293056661E1,-5.495169416E0,1.511025345E1
8.117411167E0,1.443470787E1,-1.530434437E1,-1.011537318E1,2.334319007E1
8.127449167E0,3.410000508E1,-1.658026413E1,-1.259788460E1,3.995525249E1
8.137487167E0,5.222550588E1,-1.926897761E1,-6.403707445E0,5.603395784E1
8.147525167E0,6.014763173E1,-2.137582530E1,8.697283632E0,6.442287057E1
8.157563167E0,5.128017483E1,-1.830159203E1,2.530337667E1,6.004053191E1
8.167601167E0,3.845642399E1,-1.477745528E1,4.461744567E1,6.072879209E1
8.177638667E0,2.949311718E1,-1.036104862E1,6.349006860E1,7.076852479E1
8.187676667E0,2.254252258E1,-3.880504668E0,6.716956236E1,7.095754892E1
8.197714667E0,1.850871211E1,-4.201675267E0,4.996181013E1,5.344538306E1
8.207752667E0,1.543732409E1,-7.698013773E0,2.681272079E1,3.188247774E1
8.217790667E0,1.070950057E1,-8.815205600E0,1.041529441E1,1.734588164E1
8.227828667E0,4.829248737E0,-7.969844397E0,-1.775319922E-1,9.320492512E0
8.237866667E0,-5.888865370E-1,-5.918709558E0,-6.422833103E0,8.753896004E0
8.247904667E0,-4.164483467E0,-3.608334028E0,-9.612818440E0,1.108012975E1
8.257942667E0,-5.864601763E0,-2.211749959E0,-1.051624074E1,1.224241443E1
8.267980667E0,-6.521253437E0,-1.488721570E0,-9.847999885E0,1.190487883E1
8.278018667E0,-6.713498193E0,-1.543697677E0,-8.683852578E0,1.108437441E1
8.288056667E0,-6.859896685E0,-2.307741359E0,-7.647152937E0,1.052914055E1
8.298094667E0,-6.979164097E0,-3.082683082E0,-6.813538790E0,1.022917286E1
8.308132667E0,-6.901708370E0,-3.983276500E0,-5.880296860E0,9.903431792E0
8.318170667E0,-6.773933845E0,-4.976107990E0,-4.962120280E0,9.760659206E0
8.328208667E0,-6.638557354E0,-5.935509194E0,-4.306451232E0,9.891725599E0
8.338246667E0,-6.590654624E0,-6.916003059E0,-4.144422839E0,1.041364813E1
8.348284667E0,-6.487900334E0,-7.728697037E0,-4.319753062E0,1.097660581E1
8.358322667E0,-6.344203255E0,-8.500393848E0,-4.485679793E0,1.151637676E1
8.368360667E0,-6.181519098E0,-9.194970562E0,-4.600830181E0,1.199692879E1
8.378398667E0,-6.082828622E0,-9.876144873E0,-5.038862647E0,1.264631086E1
8.388436667E0,-6.271151651E0,-1.076209043E1,-5.644247103E0,1.367506705E1
8.398474667E0,-7.151652281E0,-1.195768231E1,-6.013468366E0,1.517544393E1
8.408512667E0,-8.894964545E0,-1.315499327E1,-6.181166511E0,1.704057105E1
8.418550667E0,-1.064539638E1,-1.354236195E1,-6.518059688E0,1.841752245E1
8.428588667E0,-1.173258790E1,-1.338226519E1,-7.086912494E0,1.915627753E1
8.438626667E0,-1.276361574E1,-1.311956148E1,-6.729675685E0,1.950182850E1
8.448665667E0,-1.388865979E1,-1.222072398E1,-6.002286150E0,1.944912349E1
8.458703667E0,-1.502532694E1,-1.119663328E1,-5.986305125E0,1.967132165E1
8.468741667E0,-1.644338549E1,-1.105505932E1,-6.891378095E0,2.097833061E1
8.478779667E0,-1.757696882E1,-1.125848396E1,-8.066494778E0,2.237792734E1
8.488817667E0,-1.802306810E1,-1.113355936E1,-8.874294053E0,2.296824379E1
8.498855667E0,-1.835972856E1,-1.052413214E1,-9.030556213E0,2.300843184E1
8.508893667E0,-2.004749228E1,-9.468508573E0,-8.967078255E0,2.391574991E1
8.518931667E0,-2.249743119E1,-7.947875238E0,-8.508944816E0,2.533190228E1
8.528969667E0,-2.151170056E1,-8.030450787E0,-7.597835181E0,2.418612206E1
8.539007667E0,-1.161479457E1,-9.874873688E0,-6.806833788E0,1.669579496E1
8.549045667E0,7.403974839E0,-1.131420558E1,-6.903408156E0,1.518180278E1
8.559083667E0,2.844429042E1,-1.245765901E1,-8.104546119E0,3.209290565E1
8.569121667E0,4.567408899E1,-1.733783290E1,-9.842868369E0,4.983577944E1
8.579159667E0,5.397290184E1,-2.314325850E1,-4.048276780E0,5.886487146E1
8.589197667E0,5.191730148E1,-2.658446420E1,1.151687592E1,5.945400206E1
8.599235667E0,4.070875041E1,-2.270559207E1,2.852720861E1,5.464931749E1
8.609273667E0,3.024063459E1,-1.484641149E1,4.688064557E1,5.772960110E1
8.619311667E0,2.475908041E1,-4.241483696E0,6.030068377E1,6.532361526E1
8.629349667E0,2.078013436E1,5.926733400E-1,5.350662615E1,5.740317315E1
8.639387667E0,1.706058717E1,-2.324297019E0,3.295331230E1,3.718046238E1
8.649425667E0,1.269786497E1,-5.238124062E0,1.465845041E1,2.008840180E1
8.659463667E0,7.727671435E0,-5.190752259E0,3.532378989E0,9.956832637E0
8.669501667E0,3.195235552E0,-3.839924991E0,-3.703034071E0,6.218280751E0
8.679539667E0,-3.097907478E-1,-1.907168788E0,-7.838270350E0,8.072901905E0
8.689577667E0,-2.914702517E0,-2.360710993E-2,-9.293560465E0,9.739933992E0
8.699615667E0,-4.682934444E0,1.234796290E0,-8.968123738E0,1.019224412E1
8.709653667E0,-6.003546810E0,1.786693780E0,-7.573380956E0,9.828069397E0
8.719691667E0,-7.142149971E0,1.677495419E0,-6.097294049E0,9.539459723E0
8.729729667E0,-7.934544756E0,1.200344934E0,-4.915723794E0,9.410747519E0
8.739767667E0,-8.353947993E0,4.244105002E-1,-3.915100889E0,9.235615102E0
8.749805667E0,-8.396069580E0,-4.098594117E-1,-3.196569886E0,8.993332429E0
8.759843667E0,-8.451358513E0,-1.198557587E0,-2.736163049E0,8.963737459E0
8.769881667E0,-8.598797225E0,-1.947360794E0,-2.265241749E0,9.102903271E0
8.779919667E0,-8.751434112E0,-2.453500459E0,-1.878710097E0,9.280992142E0
8.789958667E0,-8.867982568E0,-2.984656266E0,-1.732044679E0,9.515737839E0
8.799996667E0,-9.094807758E0,-3.709239429E0,-1.694939710E0,9.967286788E0
8.810034667E0,-9.430234453E0,-4.476089483E0,-1.794568956E0,1.059175040E1
8.820072667E0,-9.708919183E0,-5.285139769E0,-2.041705034E0,1.124119093E1
8.830110667E0,-1.006380073E1,-6.449678255E0,-2.440473739E0,1.219976831E1
8.840148667E0,-1.074578372E1,-7.613062500E0,-2.850825486E0,1.347433836E1
8.850186667E0,-1.132132749E1,-8.124285734E0,-3.134277159E0,1.428286274E1
8.860224667E0,-1.176963819E1,-8.216071817E0,-3.383106006E0,1.474698700E1
8.870262667E0,-1.230144713E1,-8.114990416E0,-3.588851398E0,1.516768029E1
8.880300667E0,-1.318200741E1,-8.117647975E0,-3.479271069E0,1.586716279E1
8.890338667E0,-1.438669287E1,-8.200717029E0,-3.324505211E0,1.689026425E1
8.900376667E0,-1.604641100E1,-8.321164409E0,-3.484200271E0,1.840838762E1
8.910414667E0,-1.854315805E1,-8.157086275E0,-3.725982054E0,2.059780836E1
8.920452667E0,-2.252199184E1,-7.256746627E0,-3.577911258E0,2.393119172E1
8.930490667E0,-2.803410824E1,-4.838702515E0,-2.948247408E0,2.860098652E1
8.940528667E0,-3.363196353E1,-2.626052377E0,-1.638184442E0,3.377408430E1
8.950566667E0,-3.452425332E1,-3.341515346E0,-1.125084691E-1,3.468576726E1
8.960604667E0,-2.268384745E1,-8.324708991E0,-7.433003926E-1,2.417457777E1
8.970642667E0,2.386303087E0,-1.428739312E1,-5.321134059E0,1.543173718E1
8.980680667E0,2.872333358E1,-1.728606516E1,-1.316129423E1,3.601468599E1
8.990718667E0,4.772688736E1,-2.040620492E1,-1.983038984E1,5.556539695E1
9.000756667E0,5.130777369E1,-2.721344918E1,-1.471833642E1,5.991401242E1
9.010794667E0,3.508985917E1,-3.339352577E1,-2.470798277E0,4.850289295E1
9.020832667E0,8.905675474E0,-3.633973660E1,1.354719643E1,3.979213544E1
9.030870667E0,-6.080310227E0,-3.800094226E1,3.521166603E1,5.216227765E1
9.040908667E0,-6.541690040E0,-2.903345119E1,5.313734875E1,6.090412818E1
9.050946667E0,2.801322374E0,-1.809987128E1,5.749685966E1,6.034353005E1
9.060984667E0,1.451401716E1,-1.241701150E1,4.620446887E1,4.999691803E1
9.071022667E0,2.168051436E1,-9.317359802E0,3.107644027E1,3.902054634E1
9.081061667E0,2.006549702E1,-5.592880483E0,1.863364489E1,2.794847410E1
9.091099667E0,1.116096994E1,-3.027461393E0,9.167115596E0,1.475699091E1
9.101137667E0,1.447645173E0,-8.626753932E-1,3.036715781E0,3.472971079E0
9.111175667E0,-4.696707560E0,1.965245088E0,-2.900166339E-1,5.099545059E0
9.121213667E0,-6.384858946E0,4.295405256E0,-2.702595354E0,8.156037746E0
9.131251667E0,-4.583010499E0,5.643186418E0,-4.545059438E0,8.573628372E0
9.141289667E0,-1.075506149E0,6.557638906E0,-5.419662566E0,8.575085062E0
9.151327667E0,2.477329324E0,6.691707374E0,-5.847201619E0,9.225284545E0
9.161365667E0,4.296570314E0,6.251457644E0,-6.313785455E0,9.869403523E0
9.171403667E0,3.882022020E0,4.787370393E0,-6.462129900E0,8.930181023E0
9.181442458E0,1.792673289E0,2.743015401E0,-5.551190420E0,6.446202455E0
9.191480458E0,-1.008782110E0,6.559906456E-1,-3.457524104E0,3.660934034E0
9.201518458E0,-3.856933957E0,-1.000219739E0,-1.065686628E0,4.124568712E0
9.211556458E0,-6.924780899E0,-2.095730529E0,3.354886758E-1,7.242736333E0
9.221594458E0,-9.528619704E0,-3.636461767E0,-3.765256047E-1,1.020589140E1
9.231632458E0,-1.115111504E1,-5.829649447E0,-2.956671492E0,1.292571413E1
9.241670458E0,-1.263237147E1,-7.512592717E0,-5.525136396E0,1.570168751E1
9.251708458E0,-1.443903949E1,-8.978041785E0,-7.828147066E0,1.871819922E1
9.261746458E0,-1.712727350E1,-9.199570566E0,-9.755975236E0,2.175211826E1
9.271784458E0,-2.050288279E1,-7.800326014E0,-1.210121040E1,2.505299546E1
9.281822458E0,-2.263330411E1,-7.510405859E0,-1.626453437E1,2.886533785E1
9.291860458E0,-2.303757125E1,-6.663416791E0,-2.010039788E1,3.129148139E1
9.301898458E0,-2.200500910E1,-5.309658313E0,-2.242151796E1,3.186122039E1
9.311936458E0,-2.098241528E1,-3.787029617E0,-2.277208427E1,3.119569147E1
9.321974458E0,-1.797189210E1,-3.295598038E0,-2.148852220E1,2.820649674E1
9.332012458E0,-1.363451407E1,-3.202616200E0,-2.015938459E1,2.454704690E1
9.342050458E0,-1.029787764E1,-3.286294241E0,-1.931168684E1,2.213113785E1
9.352089458E0,-8.509419610E0,-3.535914801E0,-1.748612648E1,1.976556437E1
9.362127458E0,-6.948152804E0,-5.827625726E0,-1.473591900E1,1.730275578E1
9.372165458E0,-3.888735209E0,-1.124794376E1,-1.010951544E1,1.561540274E1
9.382203458E0,1.879434274E0,-1.692531885E1,-2.347663516E0,1.719041057E1
9.392241458E0,9.089911884E0,-2.258458044E1,5.499784623E0,2.495871396E1
9.402279458E0,1.755793028E1,-2.821752136E1,1.076420011E1,3.493390089E1
9.412317458E0,2.461339587E1,-3.258026929E1,1.864682919E1,4.488872288E1
9.422355458E0,2.333453964E1,-3.424930321E1,3.742629895E1,5.584123354E1
9.432393458E0,1.328432082E1,-3.125540015E1,5.557366834E1,6.512914732E1
9.442431458E0,2.753238088E0,-2.557646971E1,5.860949593E1,6.400632106E1
9.452469458E0,8.716426831E-1,-2.254141161E1,5.120068076E1,5.594984101E1
9.462507458E0,5.166646528E0,-1.913476647E1,3.787439448E1,4.274696810E1
9.472545458E0,8.797963915E0,-1.445942288E1,2.407217291E1,2.942700440E1
9.482583458E0,8.533282682E0,-1.002749069E1,1.361517148E1,1.894044290E1
9.492621458E0,5.672606099E0,-6.537156694E0,6.330460544E0,1.072322751E1
9.502659458E0,2.348066682E0,-3.757255302E0,1.951868997E0,4.841505668E0
9.512697458E0,3.012745705E-1,-1.527298868E0,-6.260777521E-1,1.677909876E0
9.522735458E0,1.242343292E-1,7.200992256E-2,-2.454349474E0,2.458546510E0
9.532773458E0,1.044832825E0,1.157128017E0,-3.913188264E0,4.212322788E0
9.542811458E0,2.304481244E0,1.885837560E0,-5.229418727E0,6.017793394E0
9.552849458E0,3.135867309E0,2.137889100E0,-6.362233145E0,7.408255137E0
9.562887458E0,3.494868516E0,2.000620450E0,-6.886525490E0,7.977519756E0
9.572926458E0,3.350307804E0,1.607974218E0,-6.921169074E0,7.855744701E0
9.582964458E0,2.650953915E0,8.661797757E-1,-6.832684913E0,7.379932736E0
9.593002458E0,1.636221971E0,-2.553273327E-1,-6.765529642E0,6.965257046E0
9.603040458E0,7.926286733E-1,-1.710114112E0,-6.969057770E0,7.219454044E0
9.613078458E0,1.161724806E-1,-3.170769340E0,-7.689173952E0,8.318092950E0
9.623116458E0,-9.307492626E-1,-4.532783208E0,-8.767158444E0,9.913399265E0
9.633154458E0,-2.578049953E0,-5.463889736E0,-9.914227788E0,1.161001056E1
9.643192458E0,-4.096142964E0,-6.078519225E0,-1.105337883E1,1.326287928E1
9.653230458E0,-5.312571396E0,-6.514836702E0,-1.228683611E1,1.488733871E1
9.663268458E0,-6.164978494E0,-6.719060649E0,-1.356073858E1,1.634155337E1
9.673306458E0,-6.492263526E0,-7.104996178E0,-1.538331102E1,1.814598342E1
9.683344458E0,-6.743692045E0,-7.343281910E0,-1.712041588E1,1.981186038E1
9.693382458E0,-6.878044689E0,-6.477629700E0,-1.767317189E1,2.004016442E1
9.703420458E0,-6.988713770E0,-5.040609210E0,-1.748942664E1,1.949692042E1
9.713458458E0,-6.859065796E0,-4.010257307E0,-1.716792334E1,1.891736078E1
9.723496458E0,-6.270449985E0,-3.074020432E0,-1.701346914E1,1.839092920E1
9.733534458E0,-5.799587157E0,-1.822825041E0,-1.707336918E1,1.812340579E1
9.743572458E0,-5.879460708E0,-8.950730610E-1,-1.708236220E1,1.808801571E1
9.753610458E0,-5.891357453E0,-3.688429481E-1,-1.696016826E1,1.795804681E1
9.763648458E0,-5.945982141E0,4.375646889E-1,-1.662122271E1,1.765817688E1
9.773686458E0,-6.278110422E0,1.545556507E0,-1.633230009E1,1.756551854E1
9.783724458E0,-6.604572167E0,2.492574477E0,-1.635249871E1,1.781116265E1
9.793762458E0,-5.241162275E0,2.144080717E0,-1.578410257E1,1.676916092E1
9.803800458E0,-2.431760218E0,1.704380917E0,-1.137891321E1,1.176001862E1
9.813839458E0,2.392406411E0,4.275720897E-1,-7.493665865E0,7.877909267E0
9.823877458E0,9.133997551E0,-2.869289239E0,-2.796440241E0,9.974106979E0
9.833915458E0,1.413173322E1,-7.726138880E0,3.234805414E0,1.642750961E1
9.843953458E0,1.557998329E1,-1.315773211E1,1.020106763E1,2.280183269E1
9.853991458E0,1.436087040E1,-1.715266561E1,1.466428593E1,2.674864143E1
9.864029458E0,1.525532249E1,-1.695306506E1,1.988711251E1,3.025935430E1
9.874067458E0,1.799196559E1,-1.151226013E1,3.301362983E1,3.932102127E1
9.884105458E0,1.548450060E1,-8.228679584E0,4.372756961E1,4.711243223E1
9.894143458E0,1.222195307E1,-8.598350497E0,4.236375568E1,4.492210551E1
9.904181458E0,1.143437756E1,-7.566977670E0,3.474476586E1,3.735241486E1
9.914219458E0,1.072237731E1,-6.714701550E0,2.593512622E1,2.885632278E1
9.924257458E0,9.513536811E0,-6.601669024E0,1.859314824E1,2.190421370E1
9.934295458E0,7.787562127E0,-5.624091750E0,1.246262797E1,1.573510813E1
9.944333458E0,6.481831509E0,-3.563269245E0,6.878558074E0,1.010077168E1
9.954371458E0,5.333688031E0,-1.200674571E0,1.861649383E0,5.775429496E0
9.964409458E0,3.436991899E0,5.860152617E-1,-2.198402227E0,4.121807801E0
9.974447458E0,1.088162448E0,1.296846066E0,-5.206992316E0,5.475278642E0
9.984485458E0,-8.796761727E-1,1.441325794E0,-7.519837418E0,7.707087972E0
9.994523458E0,-2.353251408E0,1.396786676E0,-9.074879862E0,9.478515164E0
1.000456146E1,-3.671909927E0,1.188625945E0,-9.532108737E0,1.028381501E1
1.001459946E1,-4.363503099E0,8.528970945E-1,-9.283443612E0,1.029319766E1
1.002463746E1,-4.282365673E0,7.400029285E-1,-8.639538285E0,9.670981432E0
1.003467646E1,-3.760135056E0,8.592470245E-1,-7.960812203E0,8.845985079E0
1.004471446E1,-2.835315162E0,9.398039684E-1,-7.330194672E0,7.915427816E0
1.005475246E1,-2.063342948E0,1.061541902E0,-6.820836115E0,7.204724883E0
1.006479046E1,-1.500281516E0,1.116131288E0,-6.872024980E0,7.121890269E0
1.007482846E1,-1.121334871E0,1.117644986E0,-7.256074782E0,7.426785540E0
1.008486646E1,-9.101746649E-1,9.270337225E-1,-8.052231081E0,8.156361616E0
1.009490446E1,-8.175480446E-1,6.940392818E-1,-9.286265479E0,9.347983840E0
1.010494246E1,-1.005639231E0,3.913876189E-1,-1.052842517E1,1.058358309E1
1.011498046E1,-1.443682222E0,-6.709599562E-2,-1.156749293E1,1.165742737E1
1.012501846E1,-1.903927091E0,-4.826731803E-1,-1.223237047E1,1.238905965E1
1.013505646E1,-2.364369012E0,-8.154788612E-1,-1.247894053E1,1.272710507E1
1.014509446E1,-2.777930003E0,-1.092597414E0,-1.272594914E1,1.307135975E1
1.015513246E1,-3.301679727E0,-1.109513848E0,-1.293419656E1,1.339498229E1
1.016517046E1,-3.789500358E0,-1.069863001E0,-1.295845198E1,1.354350019E1
1.017520846E1,-4.423739069E0,-6.116995950E-1,-1.286708807E1,1.362004402E1
1.018524646E1,-5.077015729E0,2.336369035E-1,-1.275432568E1,1.372965762E1
1.019528446E1,-4.808920014E0,9.817080393E-1,-1.280179338E1,1.371041123E1
1.020532246E1,-2.476872072E0,1.815795664E0,-1.309942016E1,1.345462068E1
1.021536046E1,2.041104086E0,3.154643888E0,-1.328626092E1,1.380733911E1
1.022539846E1,6.992087613E0,3.995497180E0,-1.194768708E1,1.440834874E1
1.023543646E1,1.021022437E1,2.779301175E0,-7.828685009E0,1.316288364E1
1.024547546E1,1.007905378E1,-5.272709173E-1,-2.132308810E0,1.031562313E1
1.025551346E1,8.503052577E0,-5.096976369E0,4.708899005E0,1.097519025E1
1.026555146E1,5.867887899E0,-8.288388426E0,1.295157098E1,1.645821017E1
1.027558946E1,1.241175603E0,-1.039695754E1,2.037849146E1,2.291113609E1
1.028562746E1,-3.445266878E0,-1.001987177E1,2.637365102E1,2.842247636E1
1.029566546E1,-1.901007577E0,-9.083265354E0,2.911472281E1,3.055792244E1
1.030570346E1,4.854656643E0,-8.158796586E0,2.802541460E1,2.958982116E1
1.031574146E1,9.636242970E0,-7.341767482E0,2.654924291E1,2.918254662E1
1.032577946E1,9.935229818E0,-6.197483751E0,2.685606736E1,2.929788304E1
1.033581746E1,7.618179983E0,-4.350765232E0,2.659690707E1,2.800645087E1
1.034585546E1,4.919880579E0,-3.052772820E0,2.349807223E1,2.420091001E1
1.035589346E1,2.638684702E0,-2.651166168E0,1.804318252E1,1.842682215E1
1.036593146E1,3.419206131E-1,-2.147613458E0,1.239818113E1,1.258745600E1
1.037596946E1,-1.329481423E0,-1.205395905E0,7.170776770E0,7.391923946E0
1.038600746E1,-1.840681853E0,-4.108848672E-1,2.248919832E0,2.935059874E0
1.039604546E1,-1.611285935E0,4.697984154E-1,-1.773131894E0,2.441505607E0
1.040608346E1,-1.340771519E0,1.238722696E0,-4.832902662E0,5.166144628E0
1.041612146E1,-1.202532816E0,1.505515797E0,-7.175796604E0,7.429987880E0
1.042615946E1,-1.221898794E0,1.531617914E0,-8.727737685E0,8.944959206E0
1.043619746E1,-1.381056204E0,1.553872563E0,-9.533579312E0,9.757610910E0
1.044623646E1,-1.740285452E0,1.570535227E0,-9.703961329E0,9.983087690E0
1.045627446E1,-2.192911692E0,1.371561349E0,-9.554725767E0,9.898627517E0
1.046631246E1,-2.671263633E0,1.006981094E0,-9.309698195E0,9.737563392E0
1.047635046E1,-3.214038151E0,6.970468703E-1,-9.045451995E0,9.624765835E0
1.048638846E1,-3.711087149E0,4.868670957E-1,-9.082012880E0,9.823042571E0
1.049642646E1,-4.036668887E0,3.563302720E-1,-9.429157396E0,1.026307343E1
1.050646446E1,-3.873306161E0,2.813817582E-1,-9.942193851E0,1.067374793E1
1.051650246E1,-3.346538104E0,1.422772287E-1,-1.057638637E1,1.109412046E1
1.052654046E1,-2.885049240E0,-1.305673023E-1,-1.133913109E1,1.170113032E1
1.053657846E1,-2.427607818E0,-5.684739071E-1,-1.214633454E1,1.239959213E1
1.054661646E1,-2.007123139E0,-1.113545649E0,-1.279500008E1,1.299925207E1
1.055665446E1,-1.656159222E0,-1.734251710E0,-1.313215054E1,1.334930223E1
1.056669246E1,-1.640040495E0,-2.072499541E0,-1.303345538E1,1.329871973E1
1.057673046E1,-1.762335010E0,-2.073636678E0,-1.246901547E1,1.276252877E1
1.058676846E1,-2.135928675E0,-1.981546102E0,-1.147516306E1,1.183926026E1
1.059680646E1,-2.884809211E0,-1.812871179E0,-1.052347725E1,1.106129285E1
1.060684446E1,-3.757777458E0,-1.488347349E0,-1.023166143E1,1.100104381E1
1.061688246E1,-4.497688220E0,-1.093403015E0,-1.054428983E1,1.151550162E1
1.062692046E1,-5.746497363E0,-4.984780580E-1,-1.034073656E1,1.184067333E1
1.063695946E1,-8.286679285E0,9.708997536E-1,-9.246054177E0,1.245396394E1
1.064699746E1,-1.027109973E1,2.617444691E0,-7.493399817E0,1.298066051E1
1.065703546E1,-1.008189787E1,3.046901631E0,-4.551106628E0,1.147348446E1
1.066707346E1,-7.333776092E0,2.137173986E0,6.791634536E-1,7.668966515E0
1.067711146E1,-2.430733740E0,1.760896303E-1,8.255422994E0,8.607640959E0
1.068714946E1,3.559730802E0,-2.821335931E0,1.809277978E1,1.865423008E1
1.069718746E1,8.101404410E0,-5.391142772E0,2.971533009E1,3.126816298E1
1.070722546E1,1.030204203E1,-6.580788617E0,3.905023680E1,4.091894235E1
1.071726346E1,9.831368065E0,-7.214024531E0,4.356961995E1,4.524389163E1
1.072730146E1,6.276147512E0,-6.679059847E0,4.353436825E1,4.448866246E1
1.073733946E1,2.244718461E0,-5.272691631E0,3.847684714E1,3.890125710E1
1.074737746E1,-8.307139277E-2,-3.542903685E0,3.034858355E1,3.055479652E1
1.075741546E1,-5.438686775E-1,-1.683281678E0,2.202427918E1,2.209520545E1
1.076745346E1,4.934975459E-1,6.827881426E-2,1.475560073E1,1.476400876E1
1.077749146E1,2.217545426E0,1.543304451E0,8.783190925E0,9.189327460E0
1.078752946E1,3.265314431E0,2.706969363E0,4.011631402E0,5.838077421E0
1.079756746E1,3.819376706E0,2.863178899E0,1.279821020E-1,4.775124213E0
1.080760546E1,3.905935670E0,2.191772946E0,-2.550675336E0,5.154235809E0
1.081764446E1,3.712424407E0,1.326752381E0,-3.925128863E0,5.563182853E0
1.082768246E1,3.430345076E0,3.739861590E-1,-4.527949315E0,5.692930528E0
1.083772046E1,3.062654322E0,-6.885014570E-1,-5.047654520E0,5.944131720E0
1.084775846E1,2.658692120E0,-1.905720140E0,-5.815978072E0,6.672781577E0
1.085779646E1,2.149779121E0,-3.061446872E0,-6.788315071E0,7.750821165E0
1.086783446E1,1.413200687E0,-4.039771420E0,-7.804704993E0,8.901140901E0
1.087787246E1,6.940099727E-1,-4.744192506E0,-8.701417614E0,9.934972615E0
1.088791046E1,2.459721896E-1,-5.178328096E0,-9.525688494E0,1.084501385E1
1.089794846E1,1.806050695E-1,-5.510541746E0,-1.051228802E1,1.187042072E1
1.090798646E1,3.489072318E-1,-5.702961334E0,-1.168339410E1,1.300566038E1
1.091802446E1,7.300283460E-2,-5.513710937E0,-1.274494909E1,1.388668661E1
1.092806246E1,-3.318249201E-1,-5.395404807E0,-1.350070756E1,1.454268219E1
1.093810046E1,-5.942635268E-1,-5.484464334E0,-1.405032595E1,1.509450752E1
1.094813846E1,-5.180803368E-1,-5.663353465E0,-1.445766872E1,1.553596358E1
1.095817646E1,-2.251236498E-1,-5.868176751E0,-1.464830900E1,1.578160751E1
1.096821446E1,5.261945911E-3,-6.208991071E0,-1.464814294E1,1.590973568E1
1.097825246E1,6.742903110E-2,-6.832071540E0,-1.461225507E1,1.613070818E1
1.098829046E1,-1.483991904E-1,-7.334954306E0,-1.444391139E1,1.620031337E1
1.099832846E1,-4.960057821E-1,-7.685756840E0,-1.418308698E1,1.613929479E1
1.100836746E1,-9.685442027E-1,-7.839994694E0,-1.376999523E1,1.587502325E1
1.101840546E1,-1.343124293E0,-7.754261649E0,-1.326013205E1,1.541958685E1
1.102844346E1,-1.726258274E0,-7.084346151E0,-1.262099513E1,1.457592008E1
1.103848146E1,-2.175650711E0,-6.209987437E0,-1.177667824E1,1.349027614E1
1.104851946E1,-2.392324111E0,-5.528445920E0,-1.111067570E1,1.263859341E1
1.105855746E1,-2.592103736E0,-4.516844868E0,-1.071664119E1,1.191500263E1
1.106859546E1,-2.488605387E0,-3.404156567E0,-1.080639244E1,1.159998088E1
1.107863346E1,-1.826448999E0,-2.306709910E0,-1.107606954E1,1.146019821E1
1.108867146E1,-8.018218119E-1,-1.025921468E0,-9.997123765E0,1.008156320E1
1.109870946E1,9.612299207E-1,-1.143966812E-1,-6.505467124E0,6.577092980E0
1.110874746E1,3.623083922E0,-2.088406160E-1,-7.925871581E-1,3.714639406E0
1.111878546E1,5.313841411E0,-1.102639715E0,6.234208943E0,8.265475548E0
1.112882346E1,4.884046503E0,-2.326095623E0,1.417746780E1,1.517449256E1
1.113886146E1,2.859263896E0,-2.467424141E0,2.132944519E1,2.166122813E1
1.114889946E1,1.471238249E0,-1.403474429E0,2.828497718E1,2.835796566E1
1.115893746E1,2.827178469E0,-8.646962640E-1,3.478028184E1,3.490571075E1
1.116897546E1,7.017067503E0,-3.062320738E0,3.729440214E1,3.807216143E1
1.117901346E1,1.069036731E1,-4.512822568E0,3.713714478E1,3.890780183E1
1.118905229E1,1.122395264E1,-3.009797247E0,3.564575162E1,3.749207384E1
1.119909029E1,9.719182216E0,-1.803980049E0,3.111278189E1,3.264539851E1
1.120912829E1,7.293933164E0,-1.651854940E0,2.355554802E1,2.471424545E1
1.121916629E1,4.365454023E0,-1.416715595E0,1.553112629E1,1.619506579E1
1.122920429E1,1.558442016E0,-7.461789038E-1,8.955204899E0,9.120373855E0
1.123924229E1,-3.876682051E-1,-1.822682186E-1,3.731814651E0,3.756321197E0
1.124928029E1,-1.328308618E0,-1.555348400E-2,-1.650785923E-1,1.338617435E0
1.125931829E1,-1.705936715E0,-3.520260270E-1,-2.814154381E0,3.309623435E0
1.126935629E1,-1.687068481E0,-6.229243487E-1,-4.129146404E0,4.503785611E0
1.127939429E1,-1.464218228E0,-5.963566473E-1,-4.525615107E0,4.793826068E0
1.128943229E1,-1.143417027E0,-7.269566209E-1,-4.810786738E0,4.997953328E0
1.129947029E1,-9.366914955E-1,-1.165854036E0,-5.296015590E0,5.503125268E0
1.130950829E1,-8.214865098E-1,-1.705383714E0,-6.075451775E0,6.363512236E0
1.131954629E1,-6.734348633E-1,-2.187212411E0,-7.124304269E0,7.482855335E0
1.132958429E1,-6.933212437E-1,-2.690681359E0,-8.216826108E0,8.673908682E0
1.133962229E1,-8.202678039E-1,-3.166577763E0,-9.279234202E0,9.838914644E0
1.134966029E1,-9.039324698E-1,-3.641792089E0,-1.034097045E1,1.100070059E1
1.135969829E1,-9.614097957E-1,-3.887969516E0,-1.119620175E1,1.189098606E1
1.136973629E1,-1.003298810E0,-4.022328883E0,-1.192572845E1,1.262571729E1
1.137977529E1,-1.108607237E0,-4.030666721E0,-1.256722297E1,1.324425828E1
1.138981329E1,-1.121034617E0,-3.981248977E0,-1.314130143E1,1.377682348E1
1.139985129E1,-9.115829667E-1,-4.044362946E0,-1.378054009E1,1.439066157E1
1.140988929E1,-9.157358786E-1,-3.920097042E0,-1.421245988E1,1.477158586E1
1.141992729E1,-1.081573951E0,-3.789851483E0,-1.425355762E1,1.478839685E1
1.142996529E1,-1.256365061E0,-3.735311579E0,-1.433134313E1,1.486332405E1
1.144000329E1,-1.626094885E0,-3.575184993E0,-1.438787401E1,1.491432368E1
1.145004129E1,-2.424978764E0,-3.102384106E0,-1.425246419E1,1.478641419E1
1.146007929E1,-3.394623266E0,-2.665974242E0,-1.405213858E1,1.470011852E1
1.147011729E1,-4.638182779E0,-2.151668648E0,-1.368514160E1,1.460909026E1
1.148015529E1,-5.718851143E0,-1.444588833E0,-1.292452877E1,1.420688352E1
1.149019329E1,-6.043368103E0,-7.596968624E-1,-1.239639422E1,1.381195233E1
1.150023129E1,-5.813972477E0,3.224865147E-1,-1.213888518E1,1.346323910E1
1.151026929E1,-5.102355807E0,2.006319146E0,-1.141057588E1,1.265940730E1
1.152030729E1,-4.105142414E0,3.912397721E0,-9.379028047E0,1.096016502E1
1.153034529E1,-2.680995739E0,4.767428757E0,-6.256162314E0,8.309974850E0
1.154038329E1,-3.794557907E-1,4.005922473E0,-1.388969826E0,4.256834356E0
1.155042229E1,1.809164776E0,2.665611130E0,5.784647521E0,6.621231519E0
1.156046029E1,3.809676760E0,6.643993802E-1,1.378248137E1,1.431474262E1
1.157049829E1,6.252541718E0,-1.752186875E0,2.255241139E1,2.346861088E1
1.158053629E1,9.148654182E0,-3.416638618E0,2.976868944E1,3.132963715E1
1.159057429E1,1.187525645E1,-4.123467003E0,3.260983983E1,3.494891057E1
1.160061229E1,1.364385090E1,-4.367553758E0,3.294629798E1,3.592615682E1
1.161065029E1,1.275874968E1,-4.081850030E0,3.303397581E1,3.564674951E1
1.162068829E1,8.883542594E0,-3.778088054E0,3.158180343E1,3.302425754E1
1.163072629E1,4.345767617E0,-3.253084687E0,2.817572313E1,2.869389534E1
1.164076429E1,1.236187051E0,-2.608585282E0,2.320447183E1,2.338333570E1
1.165080229E1,-5.771777800E-1,-2.180188881E0,1.742205736E1,1.756742555E1
1.166084029E1,-1.782368740E0,-1.837328328E0,1.168021205E1,1.195742310E1
1.167087829E1,-2.547422529E0,-1.698082735E0,6.426124501E0,7.118140390E0
1.168091629E1,-2.882315959E0,-1.833262905E0,2.040984657E0,3.979223107E0
1.169095429E1,-2.792427882E0,-2.170070421E0,-1.572658351E0,3.870415145E0
1.170099229E1,-2.507957332E0,-2.630764356E0,-4.396579921E0,5.704444415E0
1.171103129E1,-2.163488064E0,-3.104340292E0,-6.450725491E0,7.478600712E0
1.172106929E1,-1.786736757E0,-3.529310371E0,-7.677893504E0,8.637042815E0
1.173110729E1,-1.432854933E0,-4.001880586E0,-8.473739315E0,9.480104402E0
1.174114529E1,-1.321522631E0,-4.465461291E0,-9.105563711E0,1.022731916E1
1.175118329E1,-1.243295072E0,-4.859560118E0,-9.669610106E0,1.089323032E1
1.176122129E1,-1.260290882E0,-5.061673805E0,-1.015221414E1,1.141386555E1
1.177125929E1,-1.219987924E0,-5.127842651E0,-1.068151814E1,1.191125394E1
1.178129729E1,-1.124271343E0,-4.998834947E0,-1.136281933E1,1.246458985E1
1.179133529E1,-1.180504747E0,-4.624799379E0,-1.211730194E1,1.302349289E1
1.180137329E1,-1.167655783E0,-4.297491251E0,-1.289304269E1,1.364046923E1
1.181141129E1,-1.149050820E0,-4.305953926E0,-1.376244179E1,1.446604165E1
1.182144929E1,-1.352253843E0,-4.427917489E0,-1.451812074E1,1.523846690E1
1.183148729E1,-1.779908671E0,-4.731372194E0,-1.513607437E1,1.595790416E1
1.184152529E1,-2.071783842E0,-5.162388001E0,-1.569946646E1,1.665580335E1
1.185156329E1,-1.562313896E0,-4.997039852E0,-1.594939166E1,1.678673066E1
1.186160129E1,-1.244160168E0,-4.344915386E0,-1.604224311E1,1.666672698E1
1.187163929E1,-1.277380393E0,-4.052689381E0,-1.610791553E1,1.665895959E1
1.188167729E1,-1.182063468E0,-4.247499311E0,-1.593178102E1,1.653058290E1
1.189171629E1,-1.284602435E0,-3.872222087E0,-1.537379643E1,1.590590846E1
1.190175429E1,-1.701618838E0,-2.788918091E0,-1.484342591E1,1.519871256E1
1.191179229E1,-1.898524264E0,-1.505322108E0,-1.430684564E1,1.451055551E1
1.192183029E1,-2.503588293E0,7.312042576E-1,-1.065237912E1,1.096703219E1
1.193186829E1,-2.619377781E0,1.441448001E0,-6.875573071E0,7.497494071E0
1.194190629E1,-8.956570517E-1,-3.221099541E-1,-3.560253836E0,3.685290186E0
1.195194429E1,8.432181984E-1,-9.637443696E-1,4.021350060E0,4.220317102E0
1.196198229E1,2.657508643E0,-1.550027726E0,1.545377114E1,1.575702956E1
1.197202029E1,5.364337381E0,-1.705961712E0,2.638464847E1,2.697843760E1
1.198205829E1,1.129102605E1,-3.294964492E0,3.203296523E1,3.412411056E1
1.199209629E1,1.641547556E1,-2.429334209E0,3.334325609E1,3.724435836E1
1.200213429E1,1.777269735E1,3.936810431E-1,3.172293884E1,3.636438648E1
1.201217229E1,1.586119694E1,1.848483208E0,2.843841280E1,3.261499319E1
1.202221029E1,1.269031036E1,2.379364635E0,2.465009299E1,2.782682946E1
1.203224829E1,9.503001298E0,2.921615972E0,2.059897359E1,2.287270396E1
1.204228629E1,6.393980602E0,3.216220039E0,1.654862134E1,1.803008396E1
1.205232529E1,3.788275366E0,3.113363423E0,1.280353117E1,1.371037828E1
1.206236329E1,2.113387512E0,2.939835896E0,9.360274857E0,1.003612412E1
1.207240129E1,1.163685962E0,2.878999418E0,6.352001102E0,7.070411633E0
1.208243929E1,6.833059135E-1,2.825051252E0,4.001604597E0,4.945772023E0
1.209247729E1,3.379635099E-1,2.595368236E0,2.288180376E0,3.476481706E0
1.210251529E1,-2.677489749E-1,2.061236781E0,1.089912812E0,2.346976036E0
1.211255329E1,-1.065033494E0,1.166233448E0,-2.578341436E-1,1.600273490E0
1.212259129E1,-1.863203281E0,3.064471637E-1,-1.945259305E0,2.710990611E0
1.213262929E1,-2.423458780E0,-4.943151328E-1,-4.052808080E0,4.747920939E0
1.214266729E1,-2.755865535E0,-1.139968778E0,-6.260151284E0,6.934249618E0
1.215270529E1,-2.909158187E0,-1.521544038E0,-8.342857579E0,8.965576959E0
1.216274329E1,-2.757303658E0,-1.917007605E0,-1.030939432E1,1.084256671E1
1.217278129E1,-2.660915816E0,-2.478799314E0,-1.178100986E1,1.232952198E1
1.218281921E1,-2.633309357E0,-2.974554324E0,-1.270134757E1,1.330813742E1
1.219285721E1,-2.683978989E0,-3.419962468E0,-1.314466943E1,1.384493484E1
1.220289521E1,-2.946838814E0,-3.896050952E0,-1.334717020E1,1.421302305E1
1.221293321E1,-3.292262494E0,-4.134277628E0,-1.356297923E1,1.455629244E1
1.222297221E1,-3.633835782E0,-4.202303842E0,-1.391297836E1,1.498115773E1
1.223301021E1,-4.014165293E0,-4.242686175E0,-1.412285715E1,1.528296447E1
1.224304821E1,-4.271430210E0,-4.187209255E0,-1.440042798E1,1.559327302E1
1.225308621E1,-4.358717738E0,-4.051479885E0,-1.444812606E1,1.562566019E1
1.226312421E1,-4.283144522E0,-4.073218078E0,-1.397234280E1,1.517111716E1
1.227316221E1,-4.351238565E0,-4.045793175E0,-1.294331354E1,1.424187785E1
1.228320021E1,-4.623731093E0,-3.967696009E0,-1.136133648E1,1.289191481E1
1.229323821E1,-5.009518395E0,-3.606639798E0,-9.701403172E0,1.149871074E1
1.230327621E1,-4.939716673E0,-2.808085264E0,-8.333640613E0,1.008641212E1
1.231331421E1,-4.167988288E0,-1.264275320E0,-6.775486865E0,8.054671980E0
1.232335221E1,-2.912323285E0,9.730225852E-1,-5.335328760E0,6.155821053E0
1.233339021E1,-2.223145013E0,3.405605507E0,-4.637482867E0,6.168206381E0
1.234342821E1,-2.611045498E0,5.356659987E0,-4.191135076E0,7.285394844E0
1.235346621E1,-3.104850754E0,6.451366346E0,-2.730048616E0,7.662466403E0
1.236350421E1,-2.934864301E0,6.231514546E0,1.136970618E0,6.981253769E0
1.237354221E1,-1.860562678E0,3.818228020E0,7.863099382E0,8.936939666E0
1.238358121E1,-8.800517832E-1,3.882975116E-1,1.781844947E1,1.784439429E1
1.239361921E1,-7.892801191E-1,-2.714711369E0,2.775546503E1,2.789907632E1
1.240365721E1,-1.107547283E0,-4.482688943E0,3.354390213E1,3.386022048E1
1.241369521E1,-9.249529908E-1,-4.783335522E0,3.451240686E1,3.485458455E1
1.242373321E1,-1.468675853E-1,-3.737977617E0,3.172571978E1,3.194550582E1
1.243377121E1,9.852551065E-1,-2.477479305E0,2.703464133E1,2.716579583E1
1.244380921E1,1.468700412E0,-1.170249754E0,2.260390431E1,2.268177805E1
1.245384721E1,1.508731619E0,1.153603023E-1,1.837626215E1,1.843845410E1
1.246388521E1,1.739684943E0,1.113248172E0,1.366481551E1,1.382002200E1
1.247392321E1,2.324021908E0,1.822450965E0,8.930727285E0,9.406396504E0
1.248396121E1,2.865462529E0,2.370257596E0,5.264793797E0,6.445700141E0
1.249399921E1,3.241943695E0,2.336729077E0,2.387200634E0,4.655021866E0
1.250403721E1,3.280096485E0,1.808822567E0,2.757950360E-1,3.755919985E0
1.251407521E1,2.947068025E0,8.728518873E-1,-1.052025778E0,3.248667203E0
1.252411321E1,2.520838456E0,-3.405357000E-1,-2.032845333E0,3.256232674E0
1.253415221E1,2.086001054E0,-1.635665608E0,-3.103389242E0,4.081400148E0
1.254419021E1,1.720344400E0,-3.010189887E0,-4.237799365E0,5.475378660E0
1.255422821E1,1.689710838E0,-3.924804928E0,-5.640097919E0,7.076010243E0
1.256426621E1,1.858448325E0,-4.492197685E0,-7.235071583E0,8.716646777E0
1.257430421E1,1.819644594E0,-5.024645727E0,-8.586109352E0,1.011333006E1
1.258434221E1,1.730517532E0,-5.358190788E0,-1.017621930E1,1.163014784E1
1.259438021E1,1.724771327E0,-5.312148058E0,-1.213877058E1,1.336201722E1
1.260441821E1,1.582247931E0,-5.082355406E0,-1.424472014E1,1.520677141E1
1.261445621E1,9.415576214E-1,-4.899956484E0,-1.599508181E1,1.675526026E1
1.262449421E1,1.007085595E-1,-4.854426262E0,-1.725815991E1,1.792818117E1
1.263453221E1,-5.173752723E-1,-4.944137753E0,-1.777764292E1,1.845959813E1
1.264457021E1,-6.553648473E-1,-5.399287359E0,-1.794058845E1,1.874690697E1
1.265460821E1,-6.516429484E-1,-6.060953019E0,-1.802171623E1,1.902477453E1
1.266464621E1,-1.020929408E0,-6.433107246E0,-1.759397486E1,1.876099989E1
1.267468421E1,-1.351788551E0,-6.260257119E0,-1.574545248E1,1.699815946E1
1.268472221E1,-9.219617014E-1,-5.678134641E0,-1.305220156E1,1.426363179E1
1.269476121E1,3.236455791E-1,-5.489431543E0,-1.078443849E1,1.210548300E1
1.270479921E1,1.709270359E0,-4.985829570E0,-9.171058373E0,1.057773196E1
1.271483721E1,2.539698065E0,-3.856955591E0,-7.974277756E0,9.214948639E0
1.272487521E1,2.997369867E0,-2.515764827E0,-7.371993493E0,8.346231895E0
1.273491321E1,2.804033728E0,-1.212061146E0,-7.828271027E0,8.403185386E0
1.274495121E1,2.299811219E0,-4.150181177E-1,-8.098639262E0,8.429076437E0
1.275498921E1,2.837273979E0,3.338160798E-1,-6.909935988E0,7.477216873E0
1.276502721E1,5.216650162E0,1.165483396E0,-3.428773345E0,6.350454874E0
1.277506521E1,8.136445604E0,2.242413342E0,2.309416294E0,8.750061045E0
1.278510321E1,8.626225344E0,3.219714335E0,9.511166934E0,1.323784803E1
1.279514121E1,6.523378315E0,3.145080475E0,1.661115614E1,1.812116178E1
1.280517921E1,3.572762200E0,1.862598240E0,2.196123918E1,2.232778377E1
1.281521721E1,-1.446182346E-1,9.838875890E-1,2.646009158E1,2.647877255E1
1.282525521E1,-2.758550869E0,1.389504553E-1,2.873428893E1,2.886673293E1
1.283529321E1,-3.547382360E0,-9.377789314E-1,2.740890055E1,2.765341173E1
1.284533121E1,-3.519637907E0,-1.049805298E0,2.434815213E1,2.462361579E1
1.285537021E1,-2.472549518E0,-1.449494939E0,2.071835970E1,2.091566316E1
1.286540821E1,-8.861629276E-1,-1.360077856E0,1.743660874E1,1.751200791E1
1.287544621E1,1.103885318E0,-4.404710475E-1,1.410093126E1,1.415093071E1
1.288548421E1,2.816257625E0,9.134838966E-1,1.093567789E1,1.132937822E1
1.289552221E1,3.163721398E0,1.958331632E0,8.369676418E0,9.159458456E0
1.290556021E1,2.774377527E0,2.486938346E0,5.755414951E0,6.856153022E0
1.291559821E1,2.381435280E0,2.730031074E0,3.230167987E0,4.853688173E0
1.292563621E1,1.814920775E0,2.685434653E0,1.166842874E0,3.444853986E0
1.293567421E1,1.018264685E0,2.225016268E0,-6.127250504E-1,2.522497245E0
1.294571221E1,3.002552547E-1,1.653041048E0,-2.314241416E0,2.859792170E0
1.295575021E1,-2.420722429E-1,1.047736114E0,-3.899861875E0,4.045401412E0
1.296578821E1,-4.124742866E-1,4.465017195E-1,-5.329890849E0,5.364441750E0
1.297582621E1,-3.440871526E-1,1.766440925E-1,-6.474023137E0,6.485566643E0
1.298586421E1,-5.122140446E-1,-1.568609154E-1,-7.159201037E0,7.179215003E0
1.299590221E1,-1.135196427E0,-5.712899262E-1,-7.408022282E0,7.516238237E0
1.300594121E1,-1.661653704E0,-9.089895804E-1,-7.431413484E0,7.668980470E0
1.301597921E1,-1.641011863E0,-1.291806351E0,-7.288740252E0,7.582045769E0
1.302601721E1,-1.384949865E0,-1.780311690E0,-6.770552984E0,7.136384488E0
1.303605521E1,-1.295654403E0,-2.353296139E0,-5.921432607E0,6.502313985E0
1.304609321E1,-1.112949599E0,-2.724155207E0,-5.351622611E0,6.107335177E0
1.305613121E1,-7.825576483E-1,-2.858645553E0,-5.972739585E0,6.667673434E0
1.306616921E1,-9.710003988E-1,-2.970730830E0,-7.418188836E0,8.049696208E0
1.307620721E1,-1.741172036E0,-2.969932392E0,-9.286112282E0,9.903739687E0
1.308624521E1,-2.500767303E0,-2.875771755E0,-1.133574439E1,1.195922243E1
1.309628321E1,-2.917242840E0,-2.813732505E0,-1.300624010E1,1.362313026E1
1.310632121E1,-3.384495304E0,-3.015437179E0,-1.367424122E1,1.440598983E1
1.311635921E1,-4.038509299E0,-3.687501820E0,-1.355647245E1,1.461797429E1
1.312639721E1,-4.357892404E0,-4.444387634E0,-1.218124007E1,1.367941583E1
1.313643521E1,-4.337354059E0,-4.857569726E0,-9.850092019E0,1.180817245E1
1.314647321E1,-4.224168628E0,-4.956794052E0,-7.561749675E0,9.979652600E0
1.315651221E1,-4.041216267E0,-4.669255175E0,-5.829020287E0,8.491810779E0
1.316655021E1,-4.030397456E0,-3.743738586E0,-4.693237823E0,7.230917197E0
1.317658821E1,-4.305844583E0,-2.188810455E0,-4.124274504E0,6.351443061E0
1.318662579E1,-4.727285575E0,2.410485417E-2,-4.188685092E0,6.316082073E0
1.319666379E1,-4.485185119E0,2.401736520E0,-3.164620700E0,5.991664880E0
1.320670179E1,-3.526289699E0,4.166169219E0,3.243590856E-1,5.467805210E0
1.321673979E1,-1.970273693E0,4.756823954E0,6.037639586E0,7.934887795E0
1.322677779E1,-4.845308407E-1,4.942509888E0,1.276508690E1,1.369710253E1
1.323681579E1,2.540916333E-1,4.895638900E0,1.839445634E1,1.903648778E1
1.324685379E1,3.969744873E-1,4.614729305E0,2.198637753E1,2.246895886E1
1.325689179E1,-3.171648176E-1,4.386441726E0,2.293544378E1,2.335328769E1
1.326692979E1,-1.763464692E0,4.408649744E0,2.123245625E1,2.175691152E1
1.327696779E1,-3.265051891E0,4.573253835E0,1.810157165E1,1.895368330E1
1.328700579E1,-4.277949856E0,4.732329675E0,1.450065160E1,1.584186529E1
1.329704379E1,-4.136038517E0,4.540362369E0,1.171601689E1,1.322825600E1
1.330708179E1,-3.120792310E0,3.938252062E0,1.027229490E1,1.143543687E1
1.331712079E1,-1.632608538E0,3.081614211E0,9.592308746E0,1.020657356E1
1.332715879E1,-3.863916117E-1,2.099600362E0,9.435395790E0,9.673898587E0
1.333719679E1,3.284853195E-1,1.189723613E0,9.399938859E0,9.480622102E0
1.334723479E1,3.095722081E-1,4.593932220E-1,8.892342653E0,8.909581076E0
1.335727279E1,-3.670830823E-1,-2.196032935E-1,7.535827214E0,7.547957829E0
1.336731079E1,-9.878883270E-1,-9.979565746E-1,5.216315117E0,5.402016667E0
1.337734879E1,-1.231006710E0,-1.699336085E0,2.389354749E0,3.179958611E0
1.338738679E1,-1.023728762E0,-2.266504163E0,-5.097427189E-1,2.538680630E0
1.339742479E1,-4.977950301E-1,-2.733006722E0,-3.159965732E0,4.207434974E0
1.340746279E1,-1.964119206E-1,-3.242983915E0,-5.093773849E0,6.041693003E0
1.341750079E1,6.382732898E-2,-3.718332726E0,-6.584550716E0,7.562167700E0
1.342753879E1,3.401207670E-1,-4.304160000E0,-7.917489597E0,9.018210297E0
1.343757679E1,3.966403920E-1,-4.350258279E0,-9.101599883E0,1.009560256E1
1.344761479E1,4.452097041E-1,-4.207486814E0,-1.023559895E1,1.107558769E1
1.345765379E1,3.241492436E-1,-3.757344764E0,-1.085773685E1,1.149404897E1
1.346769179E1,-2.786256731E-2,-3.036997617E0,-1.107424521E1,1.148316323E1
1.347772979E1,-3.817590089E-1,-2.500323792E0,-1.147589279E1,1.175131798E1
1.348776779E1,-5.140934128E-1,-2.274065198E0,-1.211695111E1,1.233921265E1
1.349780579E1,-1.225108624E-2,-2.246442220E0,-1.255622201E1,1.275560128E1
1.350784379E1,7.756121794E-1,-2.357268007E0,-1.217563844E1,1.242595904E1
1.351788179E1,1.627619255E0,-2.711345712E0,-1.157291096E1,1.199720001E1
1.352791979E1,2.783866974E0,-3.122044784E0,-1.085846424E1,1.163629342E1
1.353795779E1,3.585538951E0,-3.239766777E0,-9.910995448E0,1.102633253E1
1.354799579E1,3.396073376E0,-3.355067437E0,-8.816468598E0,1.002596182E1
1.355803379E1,2.397036674E0,-3.931853454E0,-8.354137443E0,9.539227894E0
1.356807179E1,1.100477853E0,-4.418645559E0,-8.171172802E0,9.354332956E0
1.357810979E1,-2.397064595E-1,-4.473297437E0,-7.933675275E0,9.111040144E0
1.358814779E1,-1.486501236E0,-4.039560628E0,-7.218759021E0,8.404654532E0
1.359818579E1,-1.941742497E0,-3.011652861E0,-6.075240106E0,7.053294211E0
1.360822479E1,-1.092426603E0,-2.122385208E0,-5.542454095E0,6.034626107E0
1.361826279E1,5.362675895E-1,-1.051308032E0,-5.535341542E0,5.659755957E0
1.362830079E1,1.975236810E0,8.598675603E-1,-5.828571805E0,6.213950593E0
1.363833879E1,2.832053293E0,2.618618812E0,-6.291444998E0,7.379699892E0
1.364837679E1,2.424032977E0,3.330647126E0,-5.395384342E0,6.788174891E0
1.365841479E1,1.349913495E0,3.102733477E0,-2.523096358E0,4.220809958E0
1.366845279E1,5.115976019E-1,2.295245859E0,2.202504634E0,3.221942321E0
1.367849079E1,6.363497020E-1,1.412236627E0,8.512243815E0,8.652031438E0
1.368852879E1,1.297583546E0,6.944369656E-1,1.537635283E1,1.544662398E1
1.369856679E1,2.308832596E0,3.702989048E-1,2.051118583E1,2.064404450E1
1.370860479E1,3.054004828E0,8.227627377E-1,2.274075723E1,2.295965861E1
1.371864279E1,2.190346372E0,1.490056490E0,2.296348001E1,2.311578032E1
1.372868079E1,2.493061258E-1,1.706284770E0,2.227486044E1,2.234150776E1
1.373871879E1,-6.319707222E-1,1.931195289E0,2.188039090E1,2.197454000E1
1.374875679E1,6.369576663E-2,2.087975805E0,2.138680170E1,2.148857806E1
1.375879579E1,1.298839089E0,1.929314386E0,2.043463408E1,2.056656284E1
1.376883379E1,2.134572267E0,1.697117798E0,1.878136894E1,1.897831465E1
1.377887179E1,2.457747291E0,1.752522359E0,1.598214309E1,1.626470885E1
1.378890979E1,2.346027319E0,2.041008923E0,1.202728990E1,1.242277199E1
1.379894779E1,1.679269026E0,2.081566965E0,7.616449792E0,8.072370961E0
1.380898579E1,5.009176625E-1,1.954396456E0,3.431102291E0,3.980332517E0
1.381902379E1,-8.702140622E-1,1.588129207E0,-5.121815926E-1,1.881955598E0
1.382906179E1,-1.859199838E0,1.001012476E0,-3.902497800E0,4.437131855E0
1.383909979E1,-2.503424571E0,3.491601969E-1,-6.143419225E0,6.643090185E0
1.384913779E1,-2.819522710E0,-2.722783743E-1,-7.446975848E0,7.967514864E0
1.385917579E1,-2.950317907E0,-1.103893358E0,-7.945578452E0,8.547231905E0
1.386921379E1,-3.094452066E0,-2.053297285E0,-7.858959553E0,8.692232658E0
1.387925179E1,-3.101007087E0,-2.731471244E0,-7.833027737E0,8.856269171E0
1.388928979E1,-2.973727820E0,-2.998288465E0,-8.029352095E0,9.072115846E0
1.389932879E1,-2.966449791E0,-2.910977256E0,-8.605891652E0,9.556933821E0
1.390936679E1,-3.089592152E0,-2.710702518E0,-9.727882288E0,1.056054836E1
1.391940479E1,-3.266692620E0,-2.518896888E0,-1.102952804E1,1.177567879E1
1.392944279E1,-3.553631864E0,-2.217675235E0,-1.220604162E1,1.290479891E1
1.393948079E1,-3.834594962E0,-2.041708834E0,-1.333076057E1,1.402076570E1
1.394951879E1,-4.110808951E0,-2.108955615E0,-1.403964893E1,1.478033106E1
1.395955679E1,-4.226801922E0,-2.384878559E0,-1.396009405E1,1.477963891E1
1.396959479E1,-4.303453072E0,-2.631495843E0,-1.290916463E1,1.385969012E1
1.397963279E1,-4.671268372E0,-3.028547806E0,-1.156244094E1,1.283288317E1
1.398967079E1,-5.075100181E0,-3.302507693E0,-1.015353561E1,1.182190697E1
1.399970879E1,-5.041951146E0,-3.619400469E0,-8.750833018E0,1.072839269E1
1.400974679E1,-4.825367939E0,-3.936336222E0,-6.863372855E0,9.267405546E0
1.401978479E1,-4.794462481E0,-4.394809384E0,-5.363127592E0,8.429967828E0
1.402982279E1,-5.176644098E0,-4.694245883E0,-4.759524198E0,8.454978363E0
1.403986079E1,-5.950810772E0,-4.522742954E0,-4.954248174E0,8.967269799E0
1.404989979E1,-7.116973615E0,-4.154052619E0,-5.296172295E0,9.795759673E0
1.405993779E1,-7.428890995E0,-3.605600455E0,-5.294673654E0,9.809298913E0
1.406997579E1,-6.593736691E0,-2.615499322E0,-4.114969829E0,8.200681494E0
1.408001379E1,-5.513318004E0,-1.269811026E0,-1.937048644E0,5.980071313E0
1.409005179E1,-4.293392060E0,4.303813845E-2,5.057461470E-1,4.323291203E0
1.410008979E1,-2.776570233E0,1.529272303E0,2.669956196E0,4.144476098E0
1.411012779E1,-1.491533058E0,2.985546797E0,5.030199412E0,6.036643659E0
1.412016579E1,-1.310869735E-1,3.682633721E0,7.685450445E0,8.523210866E0
1.413020379E1,1.373338464E0,3.616355531E0,1.197677815E1,1.258599621E1
1.414024179E1,2.658736266E0,2.914605161E0,1.751287281E1,1.795172738E1
1.415027979E1,3.153018655E0,2.069137831E0,2.319471634E1,2.349931327E1
1.416031779E1,2.968776398E0,1.737968932E0,2.656473569E1,2.678655169E1
1.417035579E1,2.699516210E0,2.109926984E0,2.672121420E1,2.693997899E1
1.418039379E1,3.079038513E0,2.285378683E0,2.474836364E1,2.504366061E1
1.419043304E1,4.134202491E0,2.787848927E0,2.256665521E1,2.311098568E1
1.420047104E1,4.998261920E0,3.452814757E0,2.049794540E1,2.137920292E1
1.421050904E1,5.242065085E0,3.693911538E0,1.771763879E1,1.884247736E1
1.422054704E1,4.690957701E0,3.790180096E0,1.435995707E1,1.557494514E1
1.423058504E1,3.757820435E0,3.661037614E0,1.074695082E1,1.195915393E1
1.424062304E1,3.278465404E0,3.417831158E0,6.950751307E0,8.410876825E0
1.425066104E1,2.960165203E0,2.769227300E0,3.363733596E0,5.267437856E0
1.426069904E1,2.452868959E0,1.883357756E0,4.844242752E-1,3.130218754E0
1.427073704E1,1.781691779E0,8.124748541E-1,-2.134233128E0,2.896461985E0
1.428077504E1,1.187025416E0,-4.864507739E-1,-4.224446079E0,4.414930165E0
1.429081304E1,6.108190043E-1,-2.036517384E0,-5.528970416E0,5.923682703E0
1.430085104E1,1.967251852E-2,-3.234273317E0,-6.173904269E0,6.969792308E0
1.431088904E1,-3.681469832E-1,-4.348578666E0,-6.574596416E0,7.891196782E0
1.432092704E1,-6.851766571E-1,-5.358667921E0,-7.534557198E0,9.271156406E0
1.433096504E1,-7.513401680E-1,-5.857959327E0,-8.452559531E0,1.031144811E1
1.434100404E1,-7.938403626E-1,-5.648319104E0,-9.414923519E0,1.100792787E1
1.435104204E1,-8.834648030E-1,-5.289264979E0,-1.106681690E1,1.229761239E1
1.436108004E1,-9.990953929E-1,-4.793018511E0,-1.300727038E1,1.389821215E1
1.437111804E1,-1.112517416E0,-4.463019494E0,-1.472057824E1,1.542244020E1
1.438115604E1,-1.235445916E0,-4.591222913E0,-1.590037328E1,1.659600931E1
1.439119404E1,-1.023970472E0,-4.764794294E0,-1.617996609E1,1.689802008E1
1.440123204E1,-5.886592264E-1,-4.920427294E0,-1.597463292E1,1.672560975E1
1.441127004E1,-3.616159357E-1,-5.442587745E0,-1.525135808E1,1.619742111E1
1.442130804E1,-4.300661465E-1,-5.925699905E0,-1.377930048E1,1.500559889E1
1.443134604E1,-7.239303213E-1,-6.160191379E0,-1.176079720E1,1.329617929E1
1.444138404E1,-5.232494216E-1,-5.978418401E0,-9.957046949E0,1.162574989E1
1.445142204E1,2.732196298E-1,-5.440848198E0,-8.633005775E0,1.020814708E1
1.446146004E1,1.419788745E0,-4.673255840E0,-7.850637796E0,9.245952305E0
1.447149804E1,2.249721339E0,-3.559117722E0,-7.254683729E0,8.388027246E0
1.448153704E1,2.428848305E0,-2.298493111E0,-6.617210339E0,7.414165316E0
1.449157504E1,2.105023509E0,-1.182081887E0,-5.981130340E0,6.449989279E0
1.450161304E1,1.449080664E0,-2.233314782E-1,-5.759729027E0,5.943415700E0
1.451165104E1,6.501033765E-1,1.066750529E0,-5.583395714E0,5.721442020E0
1.452168904E1,4.078875844E-1,2.387229871E0,-4.034685220E0,4.705733052E0
1.453172704E1,1.910111399E-1,3.206478578E0,-8.287480938E-1,3.317350378E0
1.454176504E1,5.099517569E-2,3.245764850E0,3.252558146E0,4.595293730E0
1.455180304E1,1.960015923E-1,3.229986724E0,7.446599872E0,8.119302957E0
1.456184104E1,3.246479380E-1,3.139622684E0,1.180180139E1,1.221659293E1
1.457187904E1,-3.034060268E-1,3.191759967E0,1.573394749E1,1.605728777E1
1.458191704E1,-1.452744822E0,3.318004861E0,1.771167580E1,1.807824891E1
1.459195504E1,-2.262521186E0,3.906613947E0,1.808200453E1,1.863704704E1
1.460199304E1,-2.882404836E0,4.362896158E0,1.756363249E1,1.832550973E1
1.461203104E1,-3.343551931E0,4.402457542E0,1.693838972E1,1.781768835E1
1.462207004E1,-3.097586465E0,3.998424296E0,1.672845129E1,1.747637037E1
1.463210804E1,-2.376806916E0,3.333635053E0,1.715916421E1,1.764084040E1
1.464214604E1,-1.478227134E0,2.495458909E0,1.750331027E1,1.774199372E1
1.465218404E1,-8.181161016E-1,1.640481082E0,1.730929264E1,1.740609387E1
1.466222204E1,-2.863042367E-1,1.190083071E0,1.602047743E1,1.606717041E1
1.467226004E1,1.088200454E-1,1.156757304E0,1.308690361E1,1.313837796E1
1.468229804E1,3.095708925E-1,1.216128616E0,8.909769695E0,8.997710762E0
1.469233604E1,6.049836293E-1,1.064885998E0,4.431477858E0,4.597606267E0
1.470237404E1,8.266414882E-1,1.013762476E0,1.636711675E-1,1.318271125E0
1.471241204E1,7.270774390E-1,7.840721503E-1,-3.490451530E0,3.650570177E0
1.472245004E1,4.691074938E-1,3.955540524E-1,-6.178881419E0,6.209275355E0
1.473248804E1,2.269914698E-1,-1.006481230E-2,-8.043751448E0,8.046959910E0
1.474252604E1,1.724593133E-1,-5.629355706E-1,-9.433282607E0,9.451637922E0
1.475256404E1,-8.595604353E-2,-1.206001092E0,-1.019523562E1,1.026667699E1
1.476260204E1,-6.558992098E-1,-1.889770982E0,-1.030798046E1,1.050028092E1
1.477264104E1,-1.300975077E0,-2.263553220E0,-1.021424608E1,1.054262929E1
1.478267904E1,-1.723289935E0,-2.297446020E0,-1.017198709E1,1.056964085E1
1.479271704E1,-1.880494375E0,-2.216471732E0,-1.042527444E1,1.082290872E1
1.480275504E1,-2.041196326E0,-2.250219375E0,-1.099019967E1,1.140238828E1
1.481279304E1,-2.217713095E0,-2.264462608E0,-1.157291798E1,1.199910300E1
1.482283104E1,-2.284969524E0,-2.304455224E0,-1.206721469E1,1.249597015E1
1.483286904E1,-2.260543073E0,-2.432656597E0,-1.230980164E1,1.274986625E1
1.484290704E1,-2.329913416E0,-2.598473985E0,-1.204144835E1,1.253702684E1
1.485294504E1,-2.678924655E0,-2.954458321E0,-1.110852159E1,1.180274176E1
1.486298304E1,-3.585221739E0,-3.195227950E0,-1.024743488E1,1.131694385E1
1.487302104E1,-3.939255152E0,-3.247992055E0,-9.415267920E0,1.071048335E1
1.488305904E1,-3.628067212E0,-3.167806848E0,-7.973836876E0,9.315575475E0
1.489309704E1,-3.138812259E0,-2.927299758E0,-6.045329844E0,7.413989425E0
1.490313504E1,-2.626737086E0,-2.346291175E0,-4.533454469E0,5.740822190E0
1.491317404E1,-2.503963684E0,-1.465323937E0,-3.321556460E0,4.410186582E0
1.492321204E1,-3.695613078E0,-4.591806757E-1,-1.950373279E0,4.203850478E0
1.493325004E1,-5.969960403E0,3.952295320E-1,-2.354393077E-1,5.987659415E0
1.494328804E1,-8.152503812E0,1.292842477E0,2.015726439E0,8.496935516E0
1.495332604E1,-8.975476611E0,2.218341086E0,4.719091287E0,1.038027168E1
1.496336404E1,-7.794177082E0,2.743580535E0,7.790326105E0,1.135630272E1
1.497340204E1,-4.919358423E0,3.032056427E0,1.151600703E1,1.288455942E1
1.498344004E1,-2.199535418E0,2.725674606E0,1.562488289E1,1.601262700E1
1.499347804E1,-1.108465954E0,1.405834511E0,1.945945066E1,1.954162960E1
1.500351604E1,-1.521862712E0,4.924156648E-1,2.197102976E1,2.202917810E1
1.501355404E1,-1.659667990E0,-5.232556343E-1,2.256192598E1,2.262893719E1
1.502359204E1,-1.292465917E0,-1.203623907E0,2.189148891E1,2.196261518E1
1.503363004E1,-9.456411707E-1,-1.678837940E0,2.024863182E1,2.034010385E1
1.504366804E1,-1.646207115E0,-2.243654999E0,1.770020824E1,1.791762700E1
1.505370704E1,-3.054356831E0,-2.641817932E0,1.467449751E1,1.522002545E1
1.506374504E1,-3.870273795E0,-2.791885845E0,1.126678700E1,1.223577277E1
1.507378304E1,-3.569881861E0,-3.083513094E0,7.819520668E0,9.132196504E0
1.508382104E1,-2.089648840E0,-3.540571816E0,5.142198735E0,6.583653157E0
1.509385904E1,3.257768892E-1,-3.960768228E0,3.326935313E0,5.182886658E0
1.510389704E1,2.818069092E0,-3.945264043E0,1.946048094E0,5.224339667E0
1.511393504E1,4.280658286E0,-3.738268223E0,8.096469945E-1,5.740576010E0
1.512397304E1,3.865248697E0,-3.616423944E0,8.796013284E-1,5.365852041E0
1.513401104E1,2.879433281E0,-3.375176012E0,1.415499228E0,4.656885998E0
1.514404904E1,4.237206457E0,-2.658116169E0,-4.980757695E-1,5.026686742E0
1.515408704E1,7.763297936E0,-1.755201992E0,-4.306180798E0,9.049459759E0
1.516412504E1,1.171587772E1,-5.624134143E-1,-8.729041030E0,1.462102106E1
1.517416304E1,1.299130748E1,8.857401739E-1,-1.277795077E1,1.824375596E1
1.518420071E1,1.030444056E1,1.181613671E0,-1.584669117E1,1.893925360E1
1.519423971E1,5.759752416E0,2.605519295E-1,-1.801162042E1,1.891193024E1
1.520427771E1,1.962023126E0,-9.014286920E-1,-1.898355864E1,1.910595737E1
1.521431571E1,-3.708931281E-1,-1.886355039E0,-1.825760694E1,1.835854319E1
1.522435371E1,-1.760552779E0,-2.629846051E0,-1.635391608E1,1.665731693E1
1.523439171E1,-1.957916480E0,-3.479321939E0,-1.454315267E1,1.508119384E1
1.524442971E1,-1.687497959E0,-4.128810773E0,-1.293460586E1,1.368205966E1
1.525446771E1,-1.493813033E0,-4.648452244E0,-1.145514102E1,1.245230266E1
1.526450571E1,-9.792820296E-1,-4.999986849E0,-1.038018071E1,1.156317488E1
1.527454371E1,-2.585675307E-1,-5.204130104E0,-9.537227390E0,1.086777501E1
1.528458171E1,-1.399227011E-1,-5.364397023E0,-8.862914202E0,1.036086782E1
1.529461971E1,-6.072172657E-1,-5.284739234E0,-8.195707719E0,9.770711673E0
1.530465771E1,-1.324566546E0,-4.651916427E0,-7.651563492E0,9.052139352E0
1.531469571E1,-1.812168783E0,-3.884231683E0,-7.341980905E0,8.501523103E0
1.532473371E1,-1.518031324E0,-2.539047270E0,-7.009235158E0,7.607927289E0
1.533477171E1,-6.422117550E-1,-9.042941201E-1,-5.911235647E0,6.014390299E0
1.534481071E1,8.778930643E-1,5.757428733E-1,-4.462182173E0,4.584020706E0
1.535484871E1,2.527311616E0,1.857921199E0,-2.460424731E0,3.986585637E0
1.536488671E1,3.877745659E0,2.674809677E0,9.938693708E-1,4.814487982E0
1.537492471E1,4.746118872E0,3.065343164E0,5.879173025E0,8.153934542E0
1.538496271E1,5.169850802E0,3.412468384E0,1.036040543E1,1.207105208E1
1.539500071E1,4.669209275E0,3.507856352E0,1.372449102E1,1.491536876E1
1.540503871E1,3.365693875E0,3.230461518E0,1.580721311E1,1.648125490E1
1.541507671E1,2.046815062E0,3.061005700E0,1.717319285E1,1.756353496E1
1.542511471E1,1.036262269E0,2.917018014E0,1.840074561E1,1.865932133E1
1.543515271E1,6.508670229E-1,2.327317545E0,1.900636278E1,1.915938050E1
1.544519071E1,1.008112750E0,1.676567905E0,1.918073377E1,1.928024168E1
1.545522871E1,1.667310593E0,1.044685183E0,1.879447606E1,1.889718556E1
1.546526671E1,2.341303061E0,7.583027400E-1,1.782389206E1,1.799299450E1
1.547530471E1,2.554015265E0,1.008981353E0,1.612136061E1,1.635357164E1
1.548534371E1,2.043496036E0,1.398499179E0,1.342467153E1,1.365113482E1
1.549538171E1,1.344389192E0,1.793359313E0,1.023054578E1,1.047318418E1
1.550541971E1,8.246136738E-1,2.035328937E0,7.321797486E0,7.644034931E0
1.551545771E1,8.673674914E-1,2.318900770E0,4.962099230E0,5.545453626E0
1.552549571E1,1.557177848E0,2.531935302E0,2.793486813E0,4.079101346E0
1.553553371E1,2.279671508E0,2.379180447E0,7.610180408E-1,3.381796896E0
1.554557171E1,2.389637754E0,1.834805986E0,-8.204310143E-1,3.122497182E0
1.555560971E1,1.945989914E0,1.153839397E0,-2.119336762E0,3.099969421E0
1.556564771E1,1.296638490E0,4.017373368E-1,-3.518131664E0,3.770930212E0
1.557568571E1,4.936253075E-1,-1.322619715E-1,-5.012978193E0,5.038959172E0
1.558572371E1,-8.100966454E-2,-6.913395493E-1,-6.756114455E0,6.791877168E0
1.559576171E1,-7.593255642E-1,-1.207556598E0,-8.082595087E0,8.207503371E0
1.560579971E1,-2.090056683E0,-1.472791124E0,-9.034566234E0,9.389400283E0
1.561583771E1,-3.501358926E0,-1.708726129E0,-9.951290950E0,1.068678861E1
1.562587671E1,-4.500883139E0,-1.702671776E0,-1.103833395E1,1.204167167E1
1.563591471E1,-4.977545235E0,-1.414948712E0,-1.223684242E1,1.328602080E1
1.564595271E1,-5.370870475E0,-1.002043632E0,-1.312978475E1,1.422116693E1
1.565599071E1,-5.736579316E0,-8.717669365E-1,-1.363847380E1,1.482148061E1
1.566602871E1,-5.956718214E0,-7.869323158E-1,-1.376433863E1,1.501861419E1
1.567606671E1,-6.082885340E0,-9.045733246E-1,-1.337408610E1,1.472025564E1
1.568610471E1,-6.515414407E0,-1.168473954E0,-1.272697124E1,1.434544364E1
1.569614271E1,-7.091953379E0,-1.784010054E0,-1.213528213E1,1.416840030E1
1.570618071E1,-7.568564020E0,-2.397593476E0,-1.122714990E1,1.375065492E1
1.571621871E1,-7.782903650E0,-2.709913144E0,-9.936758280E0,1.290954622E1
1.572625671E1,-7.728493554E0,-3.026751541E0,-8.355745427E0,1.177749206E1
1.573629471E1,-7.061646091E0,-2.854791068E0,-6.261494974E0,9.860172254E0
1.574633271E1,-5.392715088E0,-1.999180281E0,-3.807087613E0,6.897246835E0
1.575637071E1,-3.425928090E0,-1.327853850E0,-1.520936220E0,3.976609876E0
1.576640971E1,-1.962977245E0,-1.094058487E0,4.206101024E-1,2.286297552E0
1.577644771E1,-9.479633193E-1,-7.618172090E-1,3.160040576E0,3.385979379E0
1.578648571E1,3.121625246E-1,3.105443077E-1,7.523534612E0,7.536408712E0
1.579652371E1,1.883121821E0,1.032176966E0,1.152690624E1,1.172523366E1
1.580656171E1,2.875671183E0,1.197399546E0,1.361043524E1,1.396234929E1
1.581659971E1,2.644643599E0,9.402275991E-1,1.387143506E1,1.415255731E1
1.582663771E1,1.379616912E0,5.972454241E-1,1.307177804E1,1.315794155E1
1.583667571E1,-1.954313426E-1,8.460122904E-1,1.201362847E1,1.204496572E1
1.584671371E1,-1.352587719E0,1.712571989E0,1.127026025E1,1.147959766E1
1.585675171E1,-1.526115392E0,2.447576937E0,1.101638116E1,1.138772650E1
1.586678971E1,-7.038559529E-1,2.718679290E0,1.134126650E1,1.168379031E1
1.587682771E1,8.193242826E-1,2.498303287E0,1.213621418E1,1.241774964E1
1.588686571E1,2.274403605E0,1.969950342E0,1.296367003E1,1.330828151E1
1.589690371E1,2.718945338E0,1.441574301E0,1.328366944E1,1.363549317E1
1.590694271E1,1.773621598E0,9.238475016E-1,1.230832580E1,1.246972781E1
1.591698071E1,3.212306790E-1,4.410227323E-1,1.031113445E1,1.032555973E1
1.592701871E1,-7.444058087E-1,1.783656590E-1,8.137373557E0,8.173298155E0
1.593705671E1,-9.881521095E-1,6.243335277E-2,5.783160574E0,5.867306771E0
1.594709471E1,-6.779525683E-1,-5.184755355E-2,3.464451301E0,3.530542546E0
1.595713271E1,-1.301253989E-1,-3.913879113E-1,1.290638369E0,1.354940780E0
1.596717071E1,6.527262913E-1,-8.007149340E-1,-6.392427582E-1,1.214836335E0
1.597720871E1,1.453864271E0,-1.292411976E0,-2.206928637E0,2.941867442E0
1.598724671E1,2.141136205E0,-1.951673554E0,-3.549633538E0,4.581854664E0
1.599728471E1,2.846053574E0,-2.556424026E0,-4.798575997E0,6.136909348E0
1.600732271E1,3.310125153E0,-2.948805233E0,-5.849532319E0,7.339578270E0
1.601736071E1,3.430873665E0,-3.483644786E0,-6.595222469E0,8.209971651E0
1.602739871E1,2.954340499E0,-4.023038151E0,-6.995634534E0,8.593710857E0
1.603743671E1,2.440015902E0,-4.378716677E0,-7.534742555E0,9.049816723E0
1.604747571E1,2.012201153E0,-4.329836586E0,-8.338231847E0,9.608462347E0
1.605751371E1,1.730563872E0,-4.089728276E0,-9.379705739E0,1.037784219E1
1.606755171E1,1.530106409E0,-3.756704202E0,-1.045485667E1,1.121419101E1
1.607758971E1,1.545333435E0,-3.373872668E0,-1.147067707E1,1.205601529E1
1.608762771E1,1.741885981E0,-3.066640661E0,-1.227120300E1,1.276796282E1
1.609766571E1,1.955461380E0,-2.782386459E0,-1.258914184E1,1.304039861E1
1.610770371E1,2.056615580E0,-3.036290396E0,-1.241858557E1,1.294874491E1
1.611774171E1,1.938702383E0,-3.150067565E0,-1.184506494E1,1.240915210E1
1.612777971E1,2.309106392E0,-3.078479811E0,-1.072904197E1,1.139830478E1
1.613781771E1,2.431058260E0,-3.638890700E0,-9.580875100E0,1.053303078E1
1.614785571E1,2.250518606E0,-3.946410974E0,-8.202248999E0,9.376346955E0
1.615789371E1,1.798333101E0,-3.803259441E0,-6.064392936E0,7.380761885E0
1.616793171E1,1.260841835E0,-3.648923938E0,-4.258628901E0,5.748068211E0
1.617796971E1,5.833522935E-1,-3.033810300E0,-3.038605601E0,4.333293070E0
1.618800879E1,-5.638484672E-2,-1.713279502E0,-1.849426948E0,2.521683156E0
1.619804679E1,-1.683974719E-1,-3.258749762E-1,-4.890541005E-1,6.113314338E-1
1.620808479E1,4.291816820E-1,8.933218199E-1,1.624521984E0,1.902969382E0
1.621812279E1,1.182783407E0,2.168349293E0,4.521322081E0,5.151996565E0
1.622816079E1,2.111334847E0,3.085656684E0,7.274286520E0,8.178890902E0
1.623819879E1,2.774553821E0,3.608716144E0,9.365710428E0,1.041333342E1
1.624823679E1,2.322564636E0,3.025084792E0,1.008380757E1,1.078093779E1
1.625827479E1,1.745861650E-2,2.216347040E0,1.054169016E1,1.077217390E1
1.626831279E1,-2.189193740E0,2.216405804E0,1.126204608E1,1.168497778E1
1.627835079E1,-2.085504187E0,2.135006423E0,1.129704985E1,1.168464443E1
1.628838879E1,-3.870564401E-2,2.578665080E0,1.176161581E1,1.204103892E1
1.629842679E1,2.323628098E0,3.605011640E0,1.304039486E1,1.372760921E1
1.630846479E1,3.957211366E0,4.037377862E0,1.319008475E1,1.435054973E1
1.631850279E1,4.555963910E0,3.969155181E0,1.131117555E1,1.282394995E1
1.632854079E1,4.131325661E0,3.976342286E0,8.224684766E0,1.002619515E1
1.633857979E1,3.116204585E0,3.925004902E0,5.261805285E0,7.266566545E0
1.634861779E1,1.979783459E0,3.621105517E0,2.810150793E0,4.992884455E0
1.635865579E1,9.481160778E-1,3.165993626E0,8.669748509E-1,3.416736035E0
1.636869379E1,1.633511786E-1,2.478920059E0,-5.470456159E-1,2.543813510E0
1.637873179E1,-3.266586493E-1,1.679796883E0,-1.499095116E0,2.275018595E0
1.638876979E1,-5.425226484E-1,9.408949126E-1,-1.920878170E0,2.206668757E0
1.639880779E1,-5.581291594E-1,1.991199124E-1,-2.049671280E0,2.133614130E0
1.640884579E1,-1.783258979E-1,-4.566587716E-1,-2.223444098E0,2.276848922E0
1.641888379E1,3.066797367E-1,-8.726905042E-1,-2.563031087E0,2.724843028E0
1.642892179E1,3.977926590E-1,-1.186273902E0,-3.088025098E0,3.331873914E0
1.643895979E1,6.687095091E-2,-1.514781733E0,-3.734710193E0,4.030768617E0
1.644899779E1,-5.134763123E-1,-1.980472407E0,-4.413005335E0,4.864210621E0
1.645903579E1,-1.189443385E0,-2.446450909E0,-5.104738548E0,5.784310958E0
1.646907379E1,-1.809751251E0,-2.863569785E0,-5.693370146E0,6.624929821E0
1.647911279E1,-2.364180585E0,-3.001319076E0,-6.052565188E0,7.157570216E0
1.648915079E1,-2.666288822E0,-3.002653411E0,-6.501424359E0,7.641566743E0
1.649918879E1,-2.633025767E0,-2.980103624E0,-7.222867860E0,8.245220580E0
1.650922679E1,-2.554418723E0,-2.796922344E0,-7.947789284E0,8.804270788E0
1.651926479E1,-2.536655467E0,-2.501772147E0,-8.619045548E0,9.326383597E0
1.652930279E1,-2.558925172E0,-2.309873254E0,-9.196728235E0,9.821579441E0
1.653934079E1,-2.620503370E0,-2.236912867E0,-9.522297109E0,1.012644850E1
1.654937879E1,-2.450191958E0,-2.352700893E0,-9.316345310E0,9.916296287E0
1.655941679E1,-2.293665503E0,-2.410225216E0,-8.393996158E0,9.029355377E0
1.656945479E1,-2.270175191E0,-2.360606036E0,-6.957783169E0,7.690052202E0
1.657949279E1,-2.211451751E0,-2.206795028E0,-5.456953769E0,6.287989152E0
1.658953079E1,-2.102986485E0,-2.029437575E0,-4.008223645E0,4.960546927E0
1.659956879E1,-2.065892188E0,-1.572344063E0,-2.333109212E0,3.490497812E0
1.660960679E1,-2.047887149E0,-6.459527305E-1,-5.018606722E-1,2.205212198E0
