Time (s),Linear Acceleration x (m/s^2),Linear Acceleration y (m/s^2),Linear Acceleration z (m/s^2),Absolute acceleration (m/s^2)
0.0529706666711718,0.628410498797894,0.000766569972038269,-0.548521453142166,0.834131960295332
0.0628996666782768,0.696628502011299,0.0816204062104225,-0.496197643876076,0.859165445250582
0.07282866667083,0.796525257825852,0.14899611800909,-0.655419080257416,1.04222190549892
0.0827576666779351,0.813951422274113,0.033593131005764,-0.686783545017243,1.06551257804836
0.0926866666704882,0.75529712498188,-0.228946267068386,-0.539865819811821,0.956214015590408
0.102615666677593,0.71922799050808,-0.436412202715874,-0.484938245415688,0.97103533142541
0.112544666670146,0.648856750130653,-0.621251167953014,-0.579006496667862,1.06874534808657
0.122473666677251,0.602167317867279,-0.748046869933605,-0.968121156692505,1.36361217813591
0.132402666669805,0.495942412912846,-0.782810613512993,-1.21297565102577,1.52645381965384
0.14233166667691,0.347111917287111,-0.774174568355084,-1.16965772330761,1.44496786646059
0.152260666669463,0.175595102012157,-0.764913455843926,-1.07319913029671,1.32954225508307
0.162189666676568,-0.0524123945832253,-0.704453538358212,-1.07586955368519,1.28704978278158
0.172118666669121,-0.212010391652584,-0.558545919656754,-0.942074149847031,1.11553828008899
0.182047666676226,-0.352345760017633,-0.449583640694618,-0.601873787641525,0.829774090239378
0.191976666668779,-0.511938933134079,-0.340801163613796,-0.300166230797768,0.684343970887678
0.201905666675884,-0.534248253554106,-0.273288334608078,-0.176319864392281,0.625456956822595
0.211834666668437,-0.437434003651142,-0.278870086669922,-0.160942856669426,0.543157100572636
0.221763666675542,-0.322679619044066,-0.309562998712063,-0.170546908378601,0.478578765383011
0.231692666668096,-0.273023017197847,-0.296851151883602,-0.25731023311615,0.478404358634748
0.241621666675201,-0.3870324665308,-0.163467684388161,-0.340882147550583,0.541032764725797
0.251550666667754,-0.641394533514977,0.153774170279503,-0.27667094886303,0.715248388332901
0.261479666674859,-0.783428371846676,0.361082523465157,-0.14545533657074,0.874813041456977
0.271408666667412,-0.811587685346603,0.243188914954662,-0.206487988829613,0.872039396411642
0.281337666674517,-0.691345104128122,0.11615347713232,-0.595446528196335,0.919785981189603
0.29126666666707,0.016104693710804,0.379482541680336,-1.50342380940914,1.55066099173803
0.301195666674175,0.264505085796118,0.268207396566868,0.653228713274002,0.754059612915847
0.311124666666728,0.380616170614958,-0.124238714575768,-0.614137153029442,0.733122343312589
0.321053666673834,0.0192697915434837,-0.488783666789532,-0.551449738740921,0.737141514326645
0.330982666666387,-0.639675744473934,-0.915379271507263,-0.552935516238213,1.24613079325208
0.340911666673492,-0.936196967214346,-0.855586228966713,1.59939532935619,2.04121482852375
0.350840666666045,-0.647656462937594,-0.756924112737179,2.53002764761448,2.71908677760042
0.36076966667315,-0.534933839589357,0.47989882260561,2.69566347956657,2.78981337865905
0.370698666665703,0.456626758128405,1.05186380982399,-0.821713893413544,1.41072293285575
0.380627666672808,0.738109965473414,0.148916303515434,-0.429124817848206,0.866677850113363
0.390556666665361,0.282266076430678,-1.14108968943357,0.34000915825367,1.22366909127082
0.400485666672466,0.377766530066729,-1.85853398680687,-0.567009764313698,1.97948382266235
0.410414666665019,0.451044640615582,-1.62607120424509,-0.430975461602211,1.74163391032856
0.420343666672125,-0.332127257734537,-1.20672059208155,-0.145379322767258,1.260007242111
0.430272666664678,-0.880229684785009,-0.765265750586987,0.750558541417122,1.38700183528804
0.440201666671783,-1.28569308668375,-0.428540973365307,0.954609995484352,1.65768945296696
0.450129666671273,-1.05126417785883,-0.625614067912102,0.822209737300873,1.47396681975243
0.460058666678378,-0.391744335629046,-0.971564143449068,-1.9660999506712,2.22776783470869
0.469987666670932,0.975011734887958,-1.52850178644061,-3.62319911241531,4.05148582652445
0.479916666678037,1.04177633956075,-2.39792545124888,-2.55756394028664,3.65738673373083
0.48984566667059,1.4473051571846,-3.78133822917938,-1.60795389890671,4.3564580524178
0.499774666677695,2.2818202136457,-4.32619698643684,-0.232029796242714,4.89658265315738
0.509703666670248,2.60068949460983,-4.10939450919628,1.14733013033867,4.99670646602034
0.519632666677353,2.20502273708582,-3.65960680067539,1.6217235070467,4.56999281617847
0.529561666669906,2.06526755869389,-2.59197188079357,1.23199722826481,3.53574115148014
0.539490666677011,1.99952687457204,-1.62828963786364,0.349193964600563,2.60218586803929
0.549419666669564,2.11235197037458,-0.289437174797058,0.583818170428276,2.21057648160431
0.559348666676669,0.929920565932989,0.0541004857420921,-0.445905157327652,1.03271996728739
0.569277666669223,0.47849899917841,1.085230653584,-1.39077076792717,1.82782115990975
0.579206666676328,0.392651421502233,2.3920701956749,-1.21446201324463,2.71128990361748
0.589135666668881,-0.205837193727493,2.77331157982349,-0.922985914349556,2.93010734738377
0.599064666675986,-0.600612250864506,2.97989780187607,-0.480033600926399,3.07749220040161
0.608993666668539,-2.98979421436787,4.86688550949097,1.88431728422642,6.01465673454397
0.618922666675644,-7.1777852421999,6.16591170966625,4.28926831126213,10.3892680608664
0.628851666668197,-6.18923391401768,4.86130024909973,1.98148865282536,8.11573495350848
0.638780666675302,-2.27053157910705,2.50834500253201,-0.775969371199608,3.47120105561311
0.648709666667855,-0.635488480255008,1.95249216422439,-1.68190246582031,2.65421686461881
0.65863866667496,-1.65508538067341,1.26195134460926,-2.85925921797752,3.53655087466155
0.668567666667514,-1.08897813409567,0.443786711096764,-3.47841211259365,3.6718075720989
0.678496666674619,0.690712508484721,-0.516499030441046,-2.89794965922833,3.02356862750713
0.688425666667172,1.63141833677888,-0.934125006347895,-3.87955215632916,4.31103702729877
0.698354666674277,2.24297642916441,-0.898502014428377,-2.3765592867136,3.38914195261627
0.70828366666683,3.10086704581976,-0.481672721654177,-1.02122907757759,3.30004452629456
0.718212666673935,2.9450899118185,0.900967785269022,-3.38688973903656,4.57780729642247
0.728141666666488,1.77690480977297,1.65083810940385,-1.73410172939301,2.98157105807294
0.738070666673593,1.32396457493305,0.0732183958590031,0.343808678984642,1.36983485753392
0.747999666666146,0.725424869656563,-0.32670001834631,2.88728667676449,2.99489540674219
0.757928666673251,0.289485487416387,1.72945582419634,5.66607885181904,5.93121141507385
0.767857666665805,-0.342429174631834,2.61883925199509,3.04165375471115,4.02830415075347
0.77778666667291,-0.598794497698546,1.47331605747342,0.029596266746521,1.59062597573673
0.787715666665463,-1.02743480063975,0.888658665418625,-1.57177015900612,2.07744986123164
0.797644666672568,-1.60907100945711,1.16150933593512,-2.7140979963541,3.3622226851821
0.807573666665121,-1.61790556758642,1.66933402195573,-3.27366074681282,4.0151150902196
0.817502666672226,-1.15443829804659,1.72679914176464,-2.65031130552292,3.36730056219792
0.827431666664779,-0.654305112585426,1.63078654512763,-0.568051153421402,1.84668948365125
0.837360666671884,-0.236483766585588,1.50227410063148,2.00203050613403,2.51413567509351
0.847289666664437,-0.00623393587768078,1.83453350543976,3.09758237242699,3.60007897114883
0.857218666671543,-0.290740665346384,2.25313742816448,1.3725169301033,2.65423456538828
0.867147666664096,-0.0616377659887075,2.59997174888849,1.17924891114235,2.8555700488072
0.877076666671201,0.928865947499871,3.31027337998152,-0.701556535363197,3.50897183957779
0.887005666678306,1.56722029432654,3.1083114284277,-1.04824379861355,3.63546344341062
0.896933666677796,1.40594283074141,2.45063181459904,-0.111019914150238,2.82747183104908
0.906862666670349,1.15021975122392,1.81273128479719,0.123458696007729,2.15040513313376
0.916791666677455,0.637982683181763,1.22915460437536,-0.375253250598908,1.43480240715647
0.926720666670008,0.492627041637898,0.640717425942421,-0.412483642101288,0.907382486639637
0.936649666677113,0.523625616878271,0.384092194139957,0.2144261687994,0.683878046230748
0.946578666669666,0.598718922436237,0.287062620520592,0.693240040540695,0.959922418736131
0.956507666676771,0.721163418889046,0.257814847826958,0.688159979581833,1.02961610807225
0.966436666669324,0.903319827765227,0.164926857054234,0.570175446867943,1.08087354469551
0.976365666676429,1.0753830653429,0.0002736496925354,0.0819978439807892,1.07850473273322
0.986294666668982,1.02428951025009,-0.269364268183708,-0.580499875545502,1.20776910677946
0.996223666676087,0.839719151481986,-0.735124230980873,-1.10565527021885,1.57098996333636
1.00615266666864,0.556010164953768,-1.14479711651802,-0.997150828242302,1.61679235394784
1.01608166667575,0.32343902617693,-1.44440844655037,-0.945423434972763,1.7563467868038
1.0260106666683,0.3417466583848,-1.60436136960983,-0.938262934684753,1.8897363618814
1.0359396666754,0.497044320702553,-1.70195081412792,-0.604447731971741,1.87324496292907
1.04586866666796,0.7319977247715,-1.80996759831905,-0.264421032071114,1.97020858241889
1.05579766667506,0.983984945118427,-1.86043082356453,-0.122350063920021,2.10817427164595
1.06572666666762,1.18210439890623,-1.8999965929985,-0.0212639844417572,2.23781366971286
1.07565566667472,1.20176653862,-2.02892711341381,0.349393939375877,2.38387587129972
1.08558466666727,0.927640298008919,-2.20957801043987,0.886546651124954,2.55513531370266
1.09551366667438,0.520521183907986,-2.25236968874931,1.22083080053329,2.61429519397187
1.10544266666693,0.280686816573143,-2.3159762853384,1.36505588293076,2.70294446979062
1.11537166667404,0.170049895048142,-2.28587306499481,1.62939446926117,2.81230492168498
1.12530066666659,0.167475365996361,-2.13353380143642,1.89268172621727,2.85696667758729
1.13522966667369,0.31464919924736,-1.91867201507092,1.78472166001797,2.63923053630042
1.14515866666625,0.435646802186966,-1.66935551047325,1.6682258284092,2.39989861685336
1.15508766667335,0.404516810774803,-1.4250845682621,1.77070822298527,2.30865924030504
1.16501666666591,0.234911596477032,-1.31062532186508,1.92875553846359,2.34371929198599
1.17494566667301,-0.170694550573826,-1.21883456110954,2.12813214361668,2.45838173147402
1.18487466666556,-0.669608518481255,-1.04163059771061,2.3352761900425,2.64327160047715
1.19480366667267,-1.04514535903931,-0.776849377155304,2.49316387653351,2.81277263417425
1.20473266666522,-1.28304722160101,-0.462096682190895,2.59924874067307,2.93527469454571
1.21466166667233,-1.29712410092354,-0.22259531378746,2.42549580395222,2.75954878592618
1.22459066666488,-1.15755369454622,-0.0809108465909958,2.16138175070286,2.45317104848501
1.23451966667199,-0.93877076536417,0.0948874461650849,2.03756988286972,2.24543652881124
1.24444866666454,-0.678084349930286,0.346943956017494,2.03614257752895,2.17394689223626
1.25437766667164,-0.415777963399887,0.682250783443451,2.18432564020157,2.32585811020366
1.2643066666642,-0.207521776556969,1.02599806666374,2.4272610783577,2.64335651455744
1.2742356666713,-0.0881254336237907,1.32635900974274,2.64335136473179,2.9587667620491
1.28416466667841,-0.0722060966491699,1.66967476844788,2.68087645590305,3.15913376174547
1.29409366667096,-0.10233270585537,1.78915209531784,2.49669793367386,3.07327801783035
1.30402266667807,-0.222260304875672,1.73791002094746,2.13036753416061,2.75829598024552
1.31395166667062,-0.332143812663853,1.62811100542545,1.72786918222904,2.39720605480113
1.32388066667772,-0.442802917063236,1.48998164534569,1.29208847880363,2.02128977731642
1.33380966667028,-0.514801218286157,1.35782463133335,0.800087966322899,1.65796525224722
1.34373866667738,-0.529363343417645,1.24858870267868,0.385249065756798,1.40982840816804
1.35366766666994,-0.506837237477303,1.19253203094006,0.0804413151741028,1.29826323806021
1.36359666667704,-0.533544139154256,1.10181248009205,-0.138441601395607,1.23200087934604
1.37352466667653,-0.544937402307987,0.99246194601059,-0.416895951032639,1.206540393315
1.38345366666908,-0.503513387739658,0.954630460739136,-0.628007333278656,1.24869462193759
1.39338266667619,-0.434569745063782,1.00482412934303,-0.713923396468163,1.30698470161644
1.40331166666874,-0.386584277451038,1.13247937202454,-0.792446240186691,1.43524491820018
1.41324066667585,-0.374137309491634,1.12698649764061,-1.00814242422581,1.55769972707893
1.4231696666684,-0.415439117252827,1.01244188189507,-1.29238083958626,1.69348057529123
1.43309866667551,-0.566304626651108,0.814344647526741,-1.50083934009075,1.79899329067285
1.44302766666806,-0.666488151848316,0.469722036123276,-1.47398951053619,1.68448518098103
1.45295666667516,-0.759689845740795,0.179122434854507,-1.29239136457443,1.5097976512157
1.46288566666772,-0.832344423830509,0.0886613309383392,-1.11545461893082,1.39459566842135
1.47281466667482,-0.866417318880558,0.0135374736785889,-1.04391042709351,1.35669127418301
1.48274366666737,-0.833729629218578,-0.00267217755317688,-1.17276785731316,1.43892205567804
1.49267266667448,-0.777176236510277,0.0454316961765289,-1.55707376718521,1.74084624768246
1.50260166666703,-0.655567891895771,-0.00586768090724945,-1.79779077172279,1.91359748888201
1.51253066667414,-0.508598418831825,-0.128366848826408,-1.72682311534882,1.80473501412779
1.52245966666669,-0.374125907421112,-0.192647044658661,-1.46227519869804,1.52162144935815
1.5323886666738,-0.281714757084847,-0.186813862323761,-1.05167611420155,1.10466523105317
1.54231766666635,-0.178042161762714,-0.242922574281693,-0.608041430711746,0.678546070597106
1.55224666667345,-0.0911738795042038,-0.313447011709213,-0.299363408088684,0.442922290651255
1.56217566666601,-0.0567712014913559,-0.440370767712593,-0.169988499283791,0.475442396367116
1.57210466667311,-0.0402381992340088,-0.596445232629776,-0.193042316436768,0.628196915098806
1.58203366666567,0.0480173258017749,-0.796588992476463,-0.446200441718102,0.91430548543758
1.59196266667277,0.113623386919498,-1.05440442502499,-0.691868283748627,1.2662387956561
1.60189166666532,0.170755653977394,-1.26580816805363,-0.745238159894943,1.47878589614593
1.61182066667243,0.43683524876833,-1.37498387038708,-0.446716166138649,1.51028507622923
1.62174966666498,0.874388827979565,-1.48438819885254,0.215060006976128,1.73614946188073
1.63167866667209,1.22445051938295,-1.5244556593895,0.90983552634716,2.15662811278747
1.64160766666464,1.4552380746603,-1.65916088998318,1.5364652556181,2.6890998855588
1.65153666667175,1.57896223425865,-1.9693387234211,2.0417225754261,3.24654398087959
1.6614656666643,1.66034816712141,-2.38915886700153,2.36475200414658,3.74925168119596
1.6713946666714,1.70886923968792,-2.5034491288662,2.51645509064198,3.93954792360626
1.68132366667851,1.71410512894392,-2.26925586283207,2.64031315147877,3.88058398980634
1.69125266667106,1.61258197009563,-1.92175408244133,2.83432669043541,3.78509803727354
1.70118166667817,1.52211940437555,-1.88894301652908,2.86266054332256,3.75230310438355
1.71111066667072,1.58372654557228,-1.81429453790188,2.71414126574993,3.62855580801199
1.72103966667783,1.65617968708277,-1.37348464429379,2.41621978104115,3.23535303395332
1.73096866667038,1.66516978114843,-0.716079849600792,2.07178778886795,2.75279229023124
1.74089766667748,1.64587163060904,-0.202138829827309,1.74453900933266,2.40690047281789
1.75082666667004,1.55040414065123,0.0736679005622864,1.31073466479778,2.03155244097323
1.76075566667714,1.37408690750599,0.401879716515541,1.04143237709999,1.7703681910829
1.77068466666969,1.26532226443291,0.806186612248421,1.0498851120472,1.83118432582211
1.7806136666768,1.17677758544683,1.04638321459293,1.20452934801579,1.98257768262009
1.79054266666935,1.13918495893478,1.16198559165001,1.21495434880257,2.0307798885009
1.80047216666571,0.961825751960278,1.23789765357971,0.862079561948776,1.78904459111614
1.81040116667282,0.75696884393692,1.15009703278542,0.330895687937737,1.41605683918719
1.82033016666537,0.515447262525559,0.989638910293579,-0.0285958081483841,1.11619387807666
1.83025916667248,0.257005008459091,1.0009532725811,-0.233438975214958,1.05945872190156
1.84018816666503,0.0331142440438271,0.963573192358017,-0.405959903597832,1.04612298202399
1.85011716667213,-0.0165615805238485,0.770111630558968,-0.448658611178398,0.89142624981328
1.86004516667163,0.0645626163482666,0.679188596606255,-0.240607076883316,0.723434341620607
1.86997416666418,0.174082134962082,0.709154992103577,0.185235114097595,0.753337533933581
1.87990316667128,0.239392317831516,0.829475487470627,0.283007576465607,0.908532638097452
1.88983216667839,0.296870155334473,0.892306743264198,0.125412250757217,0.948720952568807
1.89976116667094,0.326602954566479,0.864035455584526,-0.0374847453832626,0.924463014173721
1.90969016667805,0.348048787415028,0.784985193014145,-0.173006832003593,0.875940109592228
1.9196191666706,0.353567097187042,0.694617059826851,-0.249707683324814,0.818447603165417
1.92954816667771,0.326386461406946,0.614567508101463,-0.314486061930656,0.763624794877984
1.93947716667026,0.179333811700344,0.446648923158646,-0.442930094003677,0.654097045362428
1.94940616667736,0.0100357224047184,0.33160378575325,-0.547139756083489,0.639862250126675
1.95933516666992,0.0629005452990532,0.306442047357559,-0.732823936343193,0.796802440172684
1.96926416667702,0.214388308078051,0.310712268948555,-0.569621715545654,0.683354490390531
1.97919316666957,0.315445882380009,0.320711007714272,-0.305599463582039,0.543831487982478
1.98912216667668,0.431940836906433,0.402004262208939,-0.495862013697624,0.770752521922469
1.99905116666923,0.413816222548485,0.571232623457909,-0.662423459887505,0.967654595584723
2.00898016667634,0.387972260266542,0.469457157254219,-0.809464561343193,1.0129883381876
2.01890916666889,0.391614198535681,0.40795906662941,-0.797916310429573,0.977989120077226
2.028838166676,0.441636836081743,0.550775554776192,-1.40789609313011,1.57498197315853
2.03876716666855,0.263689837753773,0.54350454211235,-2.3457327657938,2.42226995323601
2.04869616667565,-0.0145086961984634,0.587717678546906,-3.94451004445553,3.98807999703523
2.05862516666821,-0.298792135119438,0.607999915480614,-5.04542439222336,5.09070210627926
2.06855416667531,-0.185623076856136,1.1439948785305,-3.32714844435453,3.5232225276778
2.07848316666787,0.492230892777443,1.90388031363487,0.170258055925369,1.97383872341648
2.08841216667497,0.896509429514408,2.51215270936489,1.60644385546446,3.11372803133754
2.09834116666752,0.686838216483593,2.4509066337347,0.907372971475124,2.7022242268677
2.10827016667463,0.124168840348721,1.88453597009182,0.205612953007221,1.89978167427939
2.11819916666718,-0.380089482665062,1.1376687759161,0.456367580294609,1.28336652086261
2.12812816667429,-0.363475496470928,0.65462268948555,1.16402860879898,1.38405487760658
2.13805716666684,-0.10960254907608,0.666956806182861,1.65507777929306,1.78777139354764
2.14798616667395,-0.0533707532286644,0.917819899320603,1.85474762231112,2.07010399433406
2.1579151666665,-0.211224525868893,0.941294131278992,1.31836674302816,1.63362826586451
2.1678441666736,-0.547521579265595,0.36622398018837,1.54288257479668,1.67761334133874
2.17777316666616,-0.778241014480591,0.108361185193062,1.69646904945374,1.86960114966553
2.18770216667326,-0.650690729320049,-0.290348170995712,1.10871277928352,1.31793190741032
2.19763116666582,-0.422558394670486,-0.418707418441773,0.874127749800682,1.05734139337126
2.20756016667292,-0.290334722399712,-0.695411111712456,0.595223164558411,0.960302806905718
2.21748916666547,-0.382738563716412,-1.01635834693909,4.39829666376114,4.53039585908349
2.22741816667258,-0.0837859225273132,-0.954915220141411,-3.05728570103645,3.20404104471735
2.23734716666513,-0.166189855635166,-1.06466044127941,-8.25836999058724,8.32837293982283
2.24727616667224,0.936711960732937,-1.51626780331135,-3.78174022525549,4.18067655769425
2.25720516666479,2.11848423779011,-1.83931652784348,-1.76057499825954,3.31220245152073
2.26713416667189,2.52505663722754,-1.41041858196259,-2.39456374078989,3.75488043834392
2.27706316666445,2.23317971169949,-1.06532176136971,-2.70851858317852,3.66852490729141
2.28699216667155,1.99259807020426,-1.37905879497528,-2.37669231086969,3.39424757051214
2.29692116666411,1.77981818497181,-1.77852770447731,-1.24503301084042,2.80731557991474
2.30685016667121,1.61241532444954,-2.04832759022713,-0.543309829831123,2.66283958709429
2.31677916667832,1.23832274615765,-1.91593668758869,-0.603926745057106,2.35986951501455
2.32670816667087,0.455984880030155,-1.8946042907238,-1.23556066766381,2.30739198939474
2.33663616667036,-0.231520211398602,-1.7832119089365,-1.85193321123719,2.58129869239155
2.34656516667746,-0.434948059916496,-1.41322699964047,-2.45697838246822,2.86760058921289
2.35649416667002,-0.431963348686695,-1.2256190854311,-2.80302157491446,3.08960586913889
2.36642316667712,-0.37307808637619,-1.21124779880047,-2.10633957087994,2.45824630102188
2.37635216666968,-0.498179557621479,-0.90042150914669,-1.12571999073029,1.52518433748047
2.38628116667678,-0.737232152223587,-0.717278528809548,-0.331917781233788,1.08081873950379
2.39621016666933,-1.27441731601954,0.196444226503372,0.749009467810393,1.49122265687138
2.40613916667644,-1.69518850922585,0.381037901043892,0.44732588455081,1.79414447880667
2.41606816666899,-1.18527943700552,0.257020795941353,-0.750284745544195,1.4261396259591
2.4259971666761,-0.540873295068741,0.588412327766419,-1.68594756960869,1.86579532539222
2.43592616666865,-0.0211692595481873,0.751884689927101,-1.70414425089955,1.86276309614792
2.44585516667576,0.412525742053986,0.861367955803871,-1.38920429885387,1.68582941814912
2.45578416666831,1.02171615064144,0.850566979050636,-1.32833712279797,1.87932104498834
2.46571316667541,1.28914382100105,0.704873076081276,-0.668146568387747,1.61405008641547
2.47564216666797,0.88507724583149,0.257448227405548,0.0603896047174931,0.923736014909481
2.48557116667507,0.398980959355831,-0.330388149619103,0.612882267460227,0.802475425857031
2.49550016666763,0.49508141040802,-0.533222213387489,0.639485344514251,0.968696566335381
2.50542916667473,0.580389947891235,-0.350440006256104,0.315448513627052,0.747775671139069
2.51535816666728,0.836422272026539,-0.118945814967155,-0.100018377900124,0.850737327239149
2.52528716667439,0.857119076550007,0.267872058749199,-0.328533997535706,0.95621291498351
2.53521616666694,0.720668744444847,0.336162275075913,-0.436208719611168,0.906998655714958
2.54514516667405,1.47590681254864,-0.100884350538254,-0.175740990042686,1.48975282080357
2.5550741666666,1.72228538364172,-0.200257195830345,0.21821867287159,1.747566672942
2.56500316667371,1.75661204785109,-0.477164372205734,0.974589931368828,2.06475113732468
2.57493216666626,1.85011282682419,-0.522560985088348,1.51074101507664,2.44506152678224
2.58486116667336,1.44646710500121,0.0805120664834976,0.676771357655525,1.5989899153037
2.59479016666592,0.411222690045834,0.960872948169708,-1.19494166851044,1.58753472858876
2.60471916667302,-0.29841338172555,1.91267686486244,-1.99123771548271,2.77712278722668
2.61464816666557,0.0797627457976341,1.75034470975399,-1.60704991936684,2.37753614944503
2.62457716667268,0.185813111364841,0.842080914974213,-0.846658115386963,1.20849358462074
2.63450616666523,0.0796836622059345,-0.526703737378121,-0.329055569171906,0.626134075573017
2.64443516667234,-0.659945702254772,-0.151166896820068,-0.921024173498154,1.14309461060173
2.65436416666489,-1.53860387474298,1.30165218472481,0.550003137588501,2.08904373930518
2.664293166672,-1.66994958758354,1.54942619383335,0.812545459270477,2.41861184950964
2.67422216666455,-0.767118587046862,0.819781388640404,-0.937492271661759,1.46267023323082
2.68415116667165,0.0540121927857399,-0.594345497488976,-1.96473053276539,2.05337038883284
2.69408016666421,-0.0158653964102268,-1.5606896853447,-0.481043999791145,1.63321992838676
2.70400916667131,-0.577047825604677,-1.66699498951435,1.65165306508541,2.41657078015668
2.71393816667842,-0.967819440364838,-1.14755232453346,2.84627781450748,3.21789499580825
2.72386716667097,-0.826849356740713,-0.858064278960228,2.82127161204815,3.06260145538378
2.73379616667808,-0.0112890730798244,-0.716823615431786,2.04072094738483,2.16298532678956
2.74372516667063,0.321318825781345,-0.745222957134247,-0.666711223125458,1.050288959612
2.75365416667773,0.534610196202993,-1.81500380516052,-0.37457146525383,1.92882105370451
2.76358316667029,1.41972427949309,-2.46130883038044,-0.274419186115265,2.85463904513322
2.77351216667739,1.78543019637465,-1.56223042666912,-0.421128165721893,2.40949659142766
2.78344116666995,1.07170458197594,0.246748407483101,1.00165961623192,1.48753402462382
2.79337016667705,0.0569800932705402,2.16027311861515,0.879141737222672,2.33300597345297
2.80329820833867,-0.490456555187702,4.33019355833531,0.18329966744408,4.36173390445363
2.81322720833123,-0.356006847918034,5.13686373531818,-0.166458535194397,5.15187522703439
2.82315620833833,0.35134793266654,5.71722795546055,0.270576377715916,5.73440079177123
2.83308520833089,0.60692066565156,5.99933096766472,0.302170071601868,6.03751865472461
2.84301420833799,0.582539384365082,5.45037389695644,-0.0767107915878296,5.48195332855969
2.8529432083451,0.473046762943268,2.54724886715412,0.0277017688751221,2.59094913480521
2.86287220833765,0.522582035064697,0.953771504759789,-0.0610858619213104,1.08926743694594
2.87280120834475,0.229019649624825,0.964519271850586,0.148782986998558,1.00243892726972
2.88273020833731,-0.102080983221531,0.797205289006233,1.41079631209373,1.62366961977253
2.89265920834441,-0.186151226609945,0.678627848625183,2.49529869496822,2.59262485007148
2.90258820833697,0.00471431761980057,0.234220747947693,1.67898938298225,1.69525423807962
2.91251720834407,0.384249045699835,0.135364211797714,-0.207980782985687,0.457413166675589
2.92244620833662,0.203415569365025,0.413400485515595,-0.98336894094944,1.08595226843018
2.93237520834373,0.463533927798271,-0.286716465353966,-1.44017389297485,1.53986066763571
2.94230420833628,0.229057656526566,-0.774655501842499,-1.88948563814163,2.05492445926652
2.95223320834339,-0.288542112261057,-0.975526655316353,-2.09499714195728,2.32893147829428
2.96216220833594,-2.1892161051929,0.148659026026726,-3.56715530455113,4.1880023433664
2.97209120834305,-0.476631983220577,-2.12107104599476,-2.66922763288021,3.44251312063112
2.9820202083356,0.391355313062668,-3.2882466262579,0.23103686593473,3.31950341008708
2.9919492083427,-0.168739534020424,-2.86655245006084,1.68861448466778,3.33121822418182
3.00187820833526,-2.1756451562047,-2.88636632502079,1.79868831932545,4.03730381294358
3.01180720834236,-2.93737684965134,-2.05869470357895,1.71312279671431,3.97507186803382
3.02173620833491,-2.03241073831916,-1.05468976914883,2.93090047359467,3.71930658920445
3.03166520834202,-0.575068250745535,-0.0155471616983414,3.26773985624313,3.31799170814701
3.04159420833457,0.707325690686703,1.33746696531773,2.3661059269309,2.80848442642632
3.05152320834168,1.29782269701362,2.26282977283001,1.44420028567314,2.98168690489595
3.06145220833423,1.17176798343658,2.74701957464218,0.897120171189308,3.11832989788269
3.07138120834134,0.837351102232933,2.66349970042706,0.573921173214912,2.85039875028918
3.08131020833389,0.68270204231143,2.01279932320118,0.396232548728585,2.16204612039782
3.09123920834099,0.515358384847641,0.837573881149292,0.539769925475121,1.12181809740424
3.10116820833355,0.312216611355543,-0.295459806919098,0.899569496735931,0.996995982624175
3.11109720834065,0.261618461608887,-1.00288051486015,1.34230085849762,1.69587297321003
3.12102620833321,0.366737365722656,-1.48222589850426,1.59820892930031,2.21037591628872
3.13095520834031,0.522306046485901,-1.53873514473438,1.07435220122337,1.94800978029115
3.14088420833286,0.536767526417971,-1.26052462399006,0.199700029268861,1.384529453205
3.15081320833997,0.431561060249805,-0.865101402997971,-0.480299576148391,1.07950593747386
3.16074220833252,0.313524341136217,-0.632467589378357,-0.849201727285981,1.10428996994651
3.17067120833963,0.201009147763252,-0.567345394492149,-0.71733232319355,0.936403297748474
3.18060020833218,0.114403844028711,-0.594544302821159,-0.554215544834733,0.820808161315483
3.19052920833929,-0.0767827123403549,-0.703327656984329,-0.255918011069298,0.752369195530408
3.20045820833184,-0.212698316574097,-0.66225915312767,0.148337502256036,0.711218513784894
3.21038720833894,-0.127321220487356,-0.36467037498951,0.225788478255272,0.447409893156388
3.2203162083315,0.110554037243128,0.110642768740654,-0.0702741035073996,0.17147147590524
3.23024420833099,0.234494105279446,0.553598005771637,-0.344326157569885,0.692833847464154
3.24017320833809,-3.12572472900152,-6.19432917773724,18.1049840855598,19.3889225534075
3.2501022083452,-14.2428560471535,-11.3634660351276,9.12218032836914,20.3764933846509
3.26003120833775,-3.82327095150948,-2.51791455566883,-28.1951358819008,28.564365595566
3.26996020834486,11.4977029037476,14.6257340669632,-10.8646201872826,21.5441231168567
3.27988920833741,7.93785194098949,11.348072655201,-1.51329917192459,13.9311995466485
3.28981820834451,3.00278175741434,4.29928400695324,-7.24991824865341,8.94772908995696
3.29974720833707,0.370622548162937,-0.0588639199733734,-7.24879090547562,7.25849816598361
3.30967620834417,-0.964390340745449,-2.60381892442703,-5.29910584330559,5.98251155110317
3.31960520833673,-2.03553198203445,-4.19758455455303,1.84386507689953,5.01626803154666
3.32953420834383,-1.99316159561276,-6.2918046015501,6.04914222836494,8.95274371292403
3.33946320833638,-1.87853965044022,-4.46068353116512,6.26209489881992,7.91457145430568
3.34939220834349,-1.65078606918454,-1.93870282173157,6.4067959445715,6.89425105088156
3.35932120833604,-0.981138959079981,-0.500533939003944,5.0267261660099,5.14598327136496
3.36925020834315,-0.365302459001541,0.108638343214989,2.80784465074539,2.83359131825473
3.3791792083357,0.285010832548141,0.530933613181114,-1.67583597958088,1.78088402394236
3.3891082083428,1.09783958941698,0.707057011127472,-5.52684495270252,5.67901369185611
3.39903720833536,1.69433130741119,0.361875990629196,-5.79611625015736,6.04951869136758
3.40896620834246,1.82663377091289,0.121830246448517,-4.53927361786366,4.89453149135054
3.41889520833502,-0.0318965613842011,-4.31544804990292,5.30797606945038,6.84095893979031
3.42882420834212,-5.48085367798805,-9.054849640131,26.0565705513954,28.1242764874893
3.43875320833467,-5.0702505004406,-14.1087431395054,-3.77941917300224,15.4611798514543
3.44868220834178,2.08091076090932,0.195151991844177,-29.929078567028,30.0019668982906
3.45861120833433,6.99740857958794,13.8085903573036,0.0997605156898499,15.4806604072953
3.46854020834144,5.77242508649826,9.97658483505249,-2.87157228469849,11.8785126904206
3.47846920833399,2.38929978489876,5.60219919025898,-5.93055309355259,8.50087343894154
3.4883982083411,-0.844646965563297,3.57373634576798,-1.30618786990643,3.89758216295552
3.49832720833365,-2.06205144390464,1.36311986982822,-0.773408290743828,2.59004098828976
3.50825620834075,-1.17679234966636,-0.297447275519371,-1.54791059553623,1.96706439338434
3.51818520833331,-0.139087280184031,-1.41872162818909,-0.908212997093797,1.69025654203455
3.52811420834041,-0.0104058511555195,-1.86774042785168,0.250078323706985,1.88443672102778
3.53804320833297,-0.252726454585791,-1.97353585481644,0.829778373241425,2.15574733672403
3.54797220834007,-0.329051768481731,-1.67481973350048,0.885722778439522,1.92296673042208
3.55790120833262,-0.093243940025568,-1.18290225148201,0.911064684167504,1.49599165360303
3.56783020833973,0.351749490201473,-0.682018648982048,0.912475544214249,1.19226203504321
3.57775820833922,0.910294386595488,-0.380255543589592,0.705327404737473,1.21273117242511
3.58768720833177,1.69051892280579,-0.448299007415772,0.757461764216423,1.90593141342081
3.59761620833888,2.12788319841027,-0.195730866193771,0.0870207484066486,2.13863743741452
3.60754520833143,1.94695909023285,0.0567361181974411,-1.01788870945573,2.19771838755239
3.61747420833854,2.11725222945213,-0.568096761703491,-1.72177828386426,2.78747401648241
3.62740320833109,1.46176239788532,-0.0466485017538071,-0.884455102086067,1.70914780466565
3.63733220833819,0.577663098871708,0.526776827573776,0.263253927826881,0.824918851998812
3.64726120833075,-0.165305902808905,0.725948780179024,0.958343881219626,1.2135693913485
3.65719020833785,-0.759794364720583,0.632436599135399,1.20499829471111,1.55861618714929
3.66711920834496,-1.03543094113469,0.554130102396011,1.10022364541888,1.60924500129076
3.67704820833751,-1.0309486117959,0.535282772183418,0.535913686752319,1.27929127488963
3.68697720834462,-0.913563272505999,0.496294122934341,-0.311028603315353,1.08519330140364
3.69690620833717,-0.728458989858627,0.522262777090073,-1.2108047260344,1.50647236709703
3.70683520834427,-0.443922658860683,0.586652315855026,-1.89580121576786,2.03354137318494
3.71676420833683,-0.0130411912500858,0.584580647349358,-2.12465714335442,2.20364983214928
3.72669320834393,0.453893915712833,0.55161346077919,-1.96838343456388,2.09399867294595
3.73662220833648,0.736657736375928,0.514649702310562,-1.62172833099961,1.85405817498202
3.74655120834359,0.801853679269552,0.473439695835114,-1.16216977894306,1.48921222921353
3.75648020833614,0.689808236584067,0.415941685438156,-0.877915137559176,1.19146039703378
3.76640920834325,0.45989388987422,0.357194125056267,-0.781871550679207,0.974891355321125
3.7763382083358,0.178378449752927,0.364341176748276,-0.875414283424616,0.964838604137713
3.78626720834291,-0.0612492185086012,0.353189367055893,-1.14262268319726,1.19753112357306
3.79619620833546,-0.223055928200483,0.287062035799027,-1.4691926009953,1.51350105990112
3.80612533334352,-0.310150205343962,0.200062483549118,-1.8118965947628,1.84910449064183
3.81605433333607,-0.366162803694606,0.106403537392616,-2.13686861470342,2.17062304145231
3.82598333334317,-0.403348975628614,0.0518168556690216,-2.37002034544945,2.40465627907949
3.83591233333573,-0.426962225139141,0.0814394348859787,-2.34944326266646,2.38931219553644
3.84584133334283,-0.439543971419334,0.168236673474312,-2.2475849121809,2.29633194869035
3.85577033333539,-0.416672587394714,0.222459658384323,-2.21481886982918,2.26462512810533
3.86569933334249,-0.331803687438369,0.262674468755722,-2.15258593037725,2.19379072638934
3.87562833333504,-0.183831636160612,0.339215106368065,-2.12876130402088,2.16344300787852
3.88555733334215,-0.0189378889650106,0.409570559263229,-2.1649276484549,2.20341063120294
3.8954863333347,0.0896154503524304,0.433807852864266,-2.26052363097668,2.30351628350063
3.90541533334181,0.14005455583334,0.38349840939045,-2.22518890678883,2.26233330424823
3.91534433333436,0.144181447550654,0.167582954764366,-2.1039628238976,2.11554529634525
3.92527333334147,0.0786284590512514,-0.17474170088768,-2.07459693744779,2.0834273564177
3.93520233333402,-0.00694758854806423,-0.49408504486084,-2.08757249370217,2.14525691165503
3.94513133334112,-0.084515216499567,-0.821345518827438,-2.05445430278778,2.2141666074081
3.95506033333368,-0.0519078529626131,-0.994600272774696,-1.72076320722699,1.9882027419629
3.96498933334078,0.0520602460205555,-0.745340486168861,-1.29600728273392,1.49595373806729
3.97491733334027,0.211995188891888,-0.155672761201859,-0.374895401000977,0.457954725256985
3.98484633333283,0.538763034939766,0.392572703361511,0.431790563464165,0.794243052181619
3.99477533333993,0.88387812808156,0.647165150642395,0.647258706092835,1.2724021023717
4.00470433333248,1.1535699865222,0.8466978764534,0.407645071148872,1.48788289587168
4.01463333333959,1.24589313626289,1.312564843297,0.0446702425181866,1.81026837938824
4.02456233333214,1.0572694145143,1.63924878180027,0.451481062173843,2.00219637723244
4.03449133333925,0.77672797434032,1.80656217992306,0.988227830976248,2.20081064654985
4.0444203333318,0.428213163837791,1.98327907025814,0.770423433333635,2.17032593193685
4.05434933333891,-0.1346510707587,2.05556293487549,0.64634317830205,2.15898804865335
4.06427833333146,-0.774201173186302,1.88740227520466,0.82215813562274,2.19945875273473
4.07420733333856,-1.35635113298893,1.54608100175858,0.920028246492148,2.25311047982618
4.08413633333112,-1.83706037968397,1.02187285602093,1.21085238084197,2.42593867619684
4.09406533333822,-2.12237921431661,0.314517052173615,1.65397733330727,2.70906912509913
4.10399433333078,-2.04274773851037,-0.399208123683929,2.16096835255623,3.00032826036653
4.11392333333788,-1.5919065079093,-0.914393430948258,2.22833178520203,2.88716889381743
4.12385233334499,-0.830062694102526,-1.1689765226841,1.59818188592792,2.14702015063563
4.13378133333754,0.109071914255619,-1.24532244801521,1.00362194180489,1.60311624160015
4.14371033334464,1.11077604241669,-1.19711566329002,0.602836677879095,1.74078183236657
4.1536393333372,2.01015608936548,-1.02912223398685,0.174740385264158,2.26502853808545
4.1635683333443,2.57306257009506,-0.73192638874054,-0.1238411039114,2.67800370559433
4.17349733333685,2.64651529312134,-0.280803760886192,0.0250177507102489,2.66148827476349
4.18342633334396,2.23065795376897,0.268131090402603,0.479628827422857,2.29734041892974
4.19335533333651,1.45873397871852,0.574909352660179,0.799810808300972,1.76014854870808
4.20328433334362,0.560536677315831,0.411990721821785,0.697814171165228,0.985333618102276
4.21321333333617,-0.224247006028891,-0.0309908276796341,0.586524846553803,0.628695909592349
4.22314233334328,-0.749345682710409,-0.372720236778259,0.42302909553051,0.937759533551183
4.23307133333583,-1.08430591642857,-0.553217936754227,0.217714642882347,1.23659575920103
4.24300033334293,-1.33772833585739,-0.623797922730446,0.108344666808844,1.47999307964075
4.25292933333549,-1.47944554746151,-0.691016344428063,-0.108042073398829,1.63643997928269
4.26285833334259,-1.39450801581144,-0.704527505636215,-0.372669366002083,1.60620486511427
4.27278733333515,-1.0214207931608,-0.677798128724098,-0.667229140251875,1.39567383926345
4.28271633334225,-0.530940045118332,-0.700123382806778,-0.738601570129395,1.14786861707282
4.2926453333348,-0.0374519278854132,-0.714323930740357,-0.529816356450319,0.890149816880833
4.30257433334191,0.368575730323792,-0.769131052494049,-0.319799426794052,0.910868990729251
4.31250333333446,0.639771127179265,-0.681944389343262,-0.233554311543703,0.963796068558922
4.32243233334157,0.73307215064764,-0.447847602367401,-0.298116781711578,0.909305156995964
4.33236133333412,0.611034108772874,-0.208926277756691,-0.399248030930758,0.759217927754089
4.34229033334123,0.263509816601872,-0.00479588627815247,-0.407310171872377,0.485141216638466
4.35221933333378,-0.200865598618984,0.153301130533218,-0.438638822436333,0.506213632648962
4.36214833334088,-0.614469055607915,0.189348630309105,-0.573019971102476,0.861264774260448
4.37207733333344,-0.969057588279247,0.0648374354839325,-0.731232324242592,1.21572086206454
4.38200633334054,-1.29882037818432,-0.121343173384666,-0.758567472696304,1.50900071277212
4.3919353333331,-1.57365617841482,-0.258133521080017,-0.721235924363136,1.75020225721494
4.4018643333402,-1.72676259666681,-0.348235605955124,-0.80780921459198,1.93791971703736
4.41179233333969,-1.71661621570587,-0.502681621313095,-0.880114275366068,1.99350474846022
4.42172133333224,-1.5705507221818,-0.690065587162972,-0.854233767986298,1.91638602997945
4.43165033333935,-1.36112860053778,-0.826927855610848,-0.862844962477684,1.81134816500313
4.4415793333319,-1.0939544069767,-0.83411876142025,-0.973711679577827,1.68540938280385
4.45150833333901,-0.792055646181107,-0.67003711938858,-1.10894842207432,1.51857449301213
4.46143733333156,-0.546474269852042,-0.49547141969204,-1.21495683386922,1.42135363773675
4.47136633333867,-0.34769459232688,-0.358648327589035,-1.11871166422963,1.22516771917122
4.48129533333122,-0.201810435578227,-0.257514300942421,-0.944058256298304,0.999143162105977
4.49122433333832,-0.165701832398772,-0.23141525387764,-0.866558675318957,0.912104190735964
4.50115333333088,-0.229169923067093,-0.22859455704689,-0.96422106385231,1.01710205246402
4.51108233333798,-0.411236431002617,-0.233632518053055,-1.23760061502457,1.32489804814739
4.52101133334509,-0.654588410183787,-0.298514392375946,-1.44943076625466,1.61816141820527
4.53094033333764,-0.899546692594886,-0.371411629915237,-1.53722612455487,1.81939413239921
4.54086933334474,-1.16510405793786,-0.401514850258827,-1.52943441733718,1.96414135889888
4.5507983333373,-1.42159538850188,-0.37121691763401,-1.50090819105506,2.10034779180108
4.5607273333444,-1.64324549987912,-0.244263925552368,-1.38019359335303,2.15982753786778
4.57065633333696,-1.79467888355255,0.0189391314983368,-1.30970146179199,2.22183458087937
4.58058533334406,-1.84234173104167,0.297606319785118,-1.30926935255528,2.27968831489179
4.59051433333661,-1.79409386962652,0.462377348542213,-1.34850139215589,2.29151077460324
4.60044333334372,-1.7276579515636,0.460434903502464,-1.41344627022743,2.2791736785037
4.61037233333627,-1.61781230449677,0.417098849415779,-1.65257517099381,2.34995591417165
4.62030133334338,-1.40240716561675,0.550194926261902,-1.95593105792999,2.46883102265681
4.63023033333593,-1.27569610208273,0.886197572350502,-1.25908810928464,1.9995123278067
4.64015933334304,-1.05464825391769,1.52002113103867,-1.04718779146671,2.12587616029077
4.65008833333559,-1.04167328238487,2.007384801507,-0.956026775836945,2.45533381939665
4.66001733334269,-1.2610152053833,2.2518937253952,0.70696871817112,2.67600251628333
4.66994633333525,-1.17993259683251,2.5945136654377,1.5115846221149,3.2262408718236
4.67987533334235,-0.819031190872192,2.66808801054955,1.44296856969595,3.14192043450978
4.68980433333491,-0.35854410097003,2.2534736430645,1.83130467295647,2.92581170575261
4.69973333334201,0.0766268840432167,1.69951895713806,1.77123622655869,2.45591411399171
4.70966233333456,0.463840760439634,1.03412920475006,1.51369532078505,1.89099047785248
4.71959133334167,0.844133580029011,0.388594842553139,1.57554629087448,1.82918385278239
4.72952033333422,1.25369609937072,-0.0610379147529602,1.53718841001391,1.98454723916964
4.73944933334133,1.71440728381276,-0.372262984514236,1.70920180007815,2.44931477311923
4.74937833333388,2.28736775949597,-0.777390244603157,1.89087201297283,3.06786307207961
4.75930733334099,2.87045108109713,-1.3013680100441,1.65704712152481,3.56073774230727
4.76923633333354,3.40076664358377,-1.72621558964252,1.47695492595434,4.08979582367357
4.77916533334064,3.81188583791256,-1.79101267933846,1.4296709780395,4.44771392563392
4.7890943333332,4.07673342436552,-1.43895767211914,1.32810703486204,4.52263450784381
4.7990233333403,4.05691224038601,-0.89586652815342,0.771988002061844,4.22576374609217
4.80895154166501,3.63147029131651,-0.224144241213799,0.0302622646093369,3.63850696333579
4.81888054167212,2.83652699768543,0.484274586439133,-0.233767296373844,2.88704943368191
4.82880954166467,1.90275165483356,1.1489901548624,-0.184018454700708,2.23035984262921
4.83873754166416,1.05742553517222,1.65055320382118,0.0701046073436737,1.96147630550294
4.84866654167126,0.392488211095333,1.76472827553749,0.477539178729057,1.86985468674749
4.85859554167837,-0.00136459395289421,1.53006021559238,0.84120909512043,1.7460580938699
4.86852454167092,-0.123999563455582,1.06054458618164,1.17983158618212,1.59126782245145
4.87845354167803,0.0454854905605316,0.526178657412529,1.22976534605026,1.33837801674792
4.88838254167058,0.361858887523413,-0.00791829943656922,0.680878295749426,0.771102981169371
4.89831154167769,0.658290063142777,-0.495805295705795,-0.147908974438906,0.837284756341593
4.90824054167024,0.905875791907311,-0.757885102629662,-0.905412692427635,1.48821131656789
4.91816954167734,1.01833558291197,-0.892368723750114,-1.5052903868258,2.02465514278907
4.9280985416699,1.07540133789182,-1.01334586143494,-1.68153116762638,2.23850506814833
4.938027541677,1.02646014288068,-1.12746012210846,-1.79770496383309,2.35722928219925
4.94795654166956,0.802469244897366,-1.17166448771954,-1.66609159469605,2.1892043675057
4.95788554167666,0.446287126690149,-1.12030079126358,-1.39179403066635,1.84155822230893
4.96781454166921,0.145992403328419,-0.955792302489281,-1.14765655115247,1.50065594548869
4.97774354167632,-0.036291621029377,-0.740051094889641,-1.0720197468996,1.30315733606767
4.98767254166887,-0.093371994048357,-0.475154099464417,-1.20882646679878,1.30221011144271
4.99760154167598,-0.0518089619278908,-0.1581671833992,-1.50973193183541,1.51887837974078
5.00753054166853,0.0306889651715755,0.128804805278778,-1.74872225359082,1.75372803212185
5.01745954167564,0.183396018594503,0.345240662097931,-1.88484528779984,1.92495895367755
5.02738854166819,0.324903753697872,0.458656765222549,-1.84937081515789,1.93289960665554
5.03731754167529,0.53548296622932,0.482816290855408,-1.45155798330903,1.62076344873189
5.04724654166785,0.762693925872445,0.368124325275421,-1.10447252467275,1.39178917267638
5.05717554167495,0.931146873235703,0.244270357489586,-0.83263649225235,1.2727867202776
5.0671045416675,1.06527951523662,0.125274841189384,-0.528908576220274,1.19593415931528
5.07703354167461,1.22052162900567,0.104489743709564,-0.169730490893126,1.23668896370509
5.08696254166716,1.31023268133402,0.180858473181725,-0.240550943613052,1.34435271526132
5.09689154167427,1.21681522518396,0.152208870649338,-0.499511260986328,1.32412927329472
5.10682054166682,0.915240984857082,-0.170793660879135,-0.785172888636589,1.21792159025472
5.11674954167393,0.52848684579134,-0.719996899366379,-1.175661059618,1.47643923287543
5.12667854166648,0.221438149809837,-1.20625895440578,-1.52657235145569,1.95819270336305
5.13660754167358,-0.0259284545481205,-1.37284963667393,-1.65870875403285,2.1533005225412
5.14653654166614,-0.287357320189476,-0.874951037764549,-0.947621403336525,1.32140072347991
5.15646554167324,-0.339663222357631,0.388962632417679,0.42809271119535,0.670765535353632
5.1663945416658,-0.0037286963313818,1.99970214486122,0.64899459823966,2.10238354252576
5.1763235416729,0.0930654537677765,3.86549135684967,-0.545133576393127,3.9048502179566
5.18625254166545,-0.364366319775581,5.22617936968803,-0.0732504093647003,5.23937775328442
5.19618154167256,-0.976468495577574,5.5568019926548,2.01952259793878,5.99249619374208
5.20611054166511,-1.29126372903585,4.6155938154459,3.84170605301857,6.14245664900499
5.21603954167222,-1.0367499268055,2.73179517924786,4.57051061332226,5.42467718657843
5.22596854166477,-0.491172766014934,0.513222396969795,4.60275917708874,4.6572566986479
5.23589754167188,-0.031773623675108,-1.40625711858273,4.39417905449867,4.61382468346175
5.24582654166443,0.231229604780674,-2.61501868128777,3.67445346593857,4.51590501527202
5.25575554167153,0.567829617038369,-3.12238158345223,2.42239312514663,3.99245359139279
5.26568454166409,1.20764569468796,-3.08042664170265,0.887462178915739,3.42564235404336
5.27561354167119,2.06553331464529,-2.43055832326412,-0.761653779298067,3.27935330762288
5.2855425416783,2.74886437118053,-1.38379562437534,-2.03127959445119,3.68744389137244
5.29547154167085,3.0458962020278,-0.407506492137909,-2.23217647567391,3.79817812025897
5.30540054167796,2.7364144796133,0.448577919602394,-1.62579550802708,3.21440467087036
5.31532854167745,1.96185428738594,1.21715290188789,-0.857856848984957,2.46297620874809
5.32525754167,1.0042206966877,1.57930137276649,0.0309206610918045,1.87179275587882
5.3351865416771,0.107682104185224,1.31537209153175,0.838410471528769,1.56356365188996
5.34511554166966,-0.403345759660006,0.757595665454865,1.23068789049983,1.50041050315393
5.35504454167676,-0.628826455101371,0.0925678557157517,1.15540031120181,1.31868927260079
5.36497354166932,-0.706824438124895,-0.571992761492729,0.8737808637321,1.2610588817954
5.37490254167642,-0.608288475573063,-1.08599927008152,0.399419208168983,1.30726622689754
5.38483154166897,-0.355797663778067,-1.40447254836559,-0.222467990666628,1.46581960811476
5.39476054167608,-0.0701120625436306,-1.54039926230907,-0.62899858251214,1.66534825350097
5.40468954166863,0.174451825171709,-1.62102827310562,-0.631720169037581,1.74849548855077
5.41461854167574,0.327708370685577,-1.58260621905327,-0.394518072009087,1.66363449409576
5.42454754166829,0.36625628605485,-1.37657899081707,-0.0357257567346096,1.42491744137262
5.43447654167539,0.331367996782064,-1.01314179360867,0.303140563219786,1.10822165847684
5.44440554166795,0.310541676431894,-0.59958401799202,0.455182788223028,0.814327021611758
5.45433454167505,0.326654848605394,-0.29829746067524,0.530311907976866,0.69059067826374
5.46426354166761,0.375181476026774,-0.111900504827499,0.531078770309687,0.659793545897447
5.47419254167471,0.405970136225224,0.0508228290081024,0.45688038110733,0.613297965181601
5.48412154166726,0.291316908448935,0.17323604285717,0.469987207353115,0.579451674230592
5.49405054167437,0.0844568905234337,0.24201508641243,0.543371225595474,0.600796602198474
5.50397954166692,-0.0586402639746666,0.232231525182724,0.567542445659638,0.616015088673188
5.51390854167403,-0.0519813086092472,0.121396383047104,0.458254769146442,0.476903105155658
5.52383754166658,0.0629221799969673,-0.104106751084328,0.258971427083015,0.286118186074074
5.53376654167369,0.157438035607338,-0.326175815463066,0.0502796226739884,0.365657542114384
5.54369554166624,0.154332287013531,-0.410136569738388,-0.060428050160408,0.442359593428002
5.55362454167334,0.0761494588851929,-0.315763093829155,-0.105769114494324,0.341602366932638
5.5635535416659,0.0457936388254166,-0.0876228654384613,-0.100705425739288,0.141125499743493
5.573482541673,0.146694361567497,0.111028684973717,-0.130899277925491,0.225790224686773
5.58341154166556,0.415314133018255,0.190412238836288,-0.228275445252657,0.51073704456271
5.59334054167266,0.722234190255404,0.121878778338432,-0.358978256732225,0.815685019471153
5.60326954166521,1.01194136023521,0.0213575398921967,-0.552669467926025,1.15322374318368
5.61319854167232,1.1753075954318,-0.0656086832284927,-0.797738555073738,1.42198426343114
5.62312754166487,1.15361851841211,-0.134312297701836,-0.920256434082985,1.48180544735415
5.63305654167198,0.934345738738775,-0.206082776784897,-0.97852656930685,1.36857090325131
5.64298554166453,0.556909576356411,-0.333676038980484,-0.998973990082741,1.19140127920404
5.65291454167164,0.192775683403015,-0.470524274110794,-1.04971729695797,1.16638842594212
5.66284354166419,-0.116218819767237,-0.573977306485176,-1.16349972814322,1.30256991360057
5.67277254167129,-0.352656685709953,-0.642617186307907,-1.336752435565,1.52454277083431
5.6827015416784,-0.577475987970829,-0.709281876683235,-1.44990365982056,1.71428700048598
5.69263054167095,-0.769901423156262,-0.703241118192673,-1.46763651072979,1.80034807726785
5.70255954167806,-0.91485506862402,-0.664395725727081,-1.4585458445549,1.84546402230438
5.71248854167061,-0.990636883825064,-0.600078107714653,-1.44705328837037,1.85348816838321
5.72241754167771,-0.995600877553225,-0.476424114704132,-1.2197253844142,1.64497144590437
5.73234654167027,-0.977933369278908,-0.344651262760162,-0.974461877346039,1.42292449485984
5.74227554167737,-0.972550276368857,-0.230746332406998,-0.768336708247662,1.2607296328814
5.75220454166993,-0.91389334782958,-0.15158614218235,-0.913672030717135,1.30114410786187
5.76213354167703,-0.873917834758759,-0.0988354861736298,-1.30442727327347,1.57322323479418
5.77206254166958,-0.826847748756409,-0.179196694493294,-1.64418266236782,1.84908768915154
5.78199154167669,-0.777903776317835,-0.269591140151024,-1.87494025066495,2.04773401876831
5.79192054166924,-0.855526148825884,-0.270227317214012,-1.88950230270624,2.09168992592729
5.80184954167635,-1.01507415220141,-0.134126356244087,-1.71545934408903,1.99779032311429
5.81177870833199,-1.13554813697934,0.314349237084389,-1.45874713495374,1.87516085123078
5.82170770833909,-1.17200713455677,0.949029412865639,-1.00025569975376,1.80963228718598
5.83163670833164,-1.16369137063622,1.59201088070869,-0.493253278434277,2.03272601377418
5.84156570833875,-1.06300889521837,2.14928093791008,-0.0915387457609177,2.39953658095735
5.8514947083313,-0.967231064289808,2.60997545778751,0.191983093321323,2.79004754979222
5.86142370833841,-0.91615344285965,2.87237452268601,0.323392540812492,3.03223601734634
5.87135270833096,-0.819654211699963,2.94862572312355,0.58284227013588,3.11543444702027
5.881280708345,-0.554203046411276,2.8608730494976,0.936107358634472,3.06072419680096
5.89120970833756,-0.200255003124476,2.65335068821907,1.59517159312963,3.10240944307432
5.90113870834466,0.154269575625658,2.44181070506573,2.33449412494898,3.38173053934795
5.91106770833721,0.534866450428963,2.21182041764259,2.92320670723915,3.70450659777292
5.92099670834432,1.01584905445576,1.60239144265652,3.65313802599907,4.11643353814171
5.93092570833687,1.59572415500879,0.432516787648201,4.13902322798967,4.4570079237437
5.94085470834398,2.26579197227955,-0.996234569549561,3.98064817607403,4.68741469051902
5.95078370833653,3.11442527711391,-2.25030971467495,3.72194016605616,5.34942774681448
5.96071270834364,4.11342324078083,-3.11804470360279,3.25357146799564,6.10149004988262
5.97064170833619,4.95625142991543,-3.41095863282681,2.31001490280032,6.44478361797772
5.98057070834329,5.57140307486057,-2.89280294001102,0.918369391411543,6.34446557334689
5.99049970833585,5.73959706366062,-1.81261463284493,-0.838086681962013,6.07708281553471
6.00042870834295,5.18155458927155,-0.593895261883736,-2.24114361941814,5.67661380283595
6.01035770833551,3.86002771854401,0.552885230183601,-2.84667747169733,4.82794663325438
6.02028670834261,2.23472249954939,1.45939193665981,-2.50865548968315,3.66294442227798
6.03021570833516,0.837655157446861,1.85910525977612,-1.83648706018925,2.74419810727416
6.04014470834227,-0.0451544650644064,1.7010678845644,-1.02551113978028,1.98679238256671
6.05007370833482,-0.498624823093414,1.15946134865284,-0.178233658075333,1.27465468660956
6.06000270834193,-0.657382940724492,0.496806923747063,0.843617855608463,1.17926270887365
6.06993170833448,-0.614109159484506,0.00783059120178223,2.00797975569963,2.09980334251113
6.07986070834158,-0.3209326171875,-0.150584514141083,2.00476875722408,2.03587111837064
6.08978970833414,0.0176519035175443,-0.146247634291649,1.23735488578677,1.24609272271934
6.09971870834124,0.151886104345322,-0.0384629845619202,0.162728596329689,0.225896848003772
6.1096477083338,0.0964773041009903,0.038922575712204,-0.979226188659668,0.984736901747674
6.1195767083409,-0.161283456981182,0.0251348412036896,-2.02558309078217,2.03214934771064
6.12950570833345,-0.520557436645031,0.111904013156891,-2.42486371994019,2.48263300012088
6.13943470834056,-0.836572545468807,0.265608016848564,-2.20906404018402,2.37704967892565
6.14936370833311,-1.07361866801977,0.369765053987503,-1.63132302716374,1.98761114366609
6.15929270834022,-1.19202770859003,0.363017367124558,-0.846928256750107,1.50665163158649
6.16922170833277,-1.16900225043297,0.256683411598206,-0.214447803497314,1.21591138481875
6.17915070833988,-0.988547819852829,0.157297117710114,0.0816364860534668,1.0043075680442
6.18907970833243,-0.615722333192825,0.0552672976255417,0.0236112029850483,0.618648490409253
6.19900870833953,-0.161761174499989,-0.202744601368904,-0.347615801095963,0.43371510941105
6.20893770833209,0.322931195497513,-0.583675498366356,-0.920941873937845,1.13714360552694
6.21886670833919,0.719820313453674,-1.01712316274643,-1.60738569572568,2.0338066738703
6.22879570833175,1.00599971204996,-1.37377700507641,-2.10044382333756,2.70391622194886
6.23872470833885,1.22408623784781,-1.64607891440392,-2.23876570299268,3.03645101772281
6.2486537083314,1.30972280412912,-1.90850253760815,-2.38629548549652,3.32447919286821
6.25858270833851,1.23186391174793,-2.11839769899845,-2.46295423686504,3.47436916303958
6.26851170833106,1.04472903728485,-2.14245080530643,-2.33178306341171,3.33448143934226
6.27844070833817,0.776471062302589,-2.01441023111343,-2.09476149916649,3.00811928423692
6.28836970833072,0.464370371997356,-1.68262225806713,-1.97428956091404,2.63527546493076
6.29829870833783,0.189898560941219,-1.11541193425655,-2.09043572902679,2.37699953380754
6.30822770834493,0.027192750480026,-0.571182922124863,-1.96213626936078,2.04376322399313
6.31815670833748,-0.0269039162993431,-0.253818275928497,-1.67527581632137,1.69460809589085
6.32808570834459,0.0467069556377828,-0.174903084039688,-1.58093990877271,1.59127107171022
6.33801470833714,0.340800578892231,-0.231970739364624,-1.64513751268387,1.69600498057474
6.34794370834425,0.766260654330254,-0.405770453810692,-1.79320187687874,1.99182780952616
6.3578727083368,1.25050425052643,-0.587810064554215,-1.94166867569089,2.38314053272884
6.3678017083439,1.68705707877874,-0.668740206956863,-2.06609537824988,2.74993184706162
6.37773070833646,2.03261816829443,-0.648905282020569,-2.11536767184734,3.00456237582308
6.38765970834356,2.22759006589651,-0.548717919588089,-1.97191515281796,3.02517738767018
6.39758870833612,2.30160178273916,-0.363819605112076,-1.86044207945466,2.98177467330742
6.40751770834322,2.32172234416008,-0.0837607795000076,-1.83397699669004,2.95987873669561
6.41744670833577,2.32466203182936,0.211965660452843,-1.63334835648537,2.84900155441756
6.42737570834288,2.3578265619278,0.430679007768631,-1.22819302976131,2.69319301614628
6.43730470833543,2.49764986038208,0.656725932955742,-1.03482268452644,2.78215775334429
6.44723370834254,2.71682659953833,0.935667940378189,-1.16287451460958,3.09982231802712
6.45716270833509,2.87692804187536,1.18898043215275,-1.35139459446073,3.39362001056521
6.4670917083422,2.86499504417181,1.40493330895901,-1.46077728822827,3.50940229833445
6.47701970834169,2.6655868640542,1.56860447645187,-1.51117312431335,3.44231281916826
6.48694970834185,2.3386798542738,1.68223868072033,-1.66736117139459,3.32857983464001
6.49687770834134,1.95699378937483,1.71885277569294,-1.43728785350919,2.97490771789715
6.5068067083339,1.70668705880642,1.70873124539852,-1.1977723056078,2.69577478320788
6.516735708341,1.51927093327045,1.43997216403484,-1.15353358760476,2.39005099100584
6.52666470833356,1.28490400493145,1.05830276370049,-0.924514961242676,1.90412997327034
6.53659370834066,1.19056093454361,0.96074723303318,-0.793212517797947,1.72326918472815
6.54652270833321,1.2769921374321,1.10148971378803,-0.715204667598009,1.83180409028865
6.55645170834032,1.44807698965073,1.33936029374599,-0.169595127850771,1.97979177486169
6.56638070833287,1.68010152339935,1.84963160097599,0.473688056319952,2.54327713058526
6.57630970833998,1.86063021361828,2.4891883546114,0.403663555830717,3.13383913481022
6.58623870833253,1.69370770186186,2.81403392851353,-0.521932409405708,3.32563470185159
6.59616770833964,1.20707844167948,2.90815538942814,-1.45333539068699,3.46793741166858
6.60609670833219,0.499519081637263,2.63158618211746,-1.32868766337633,2.99001271797291
6.61602570833929,-0.329425405561924,1.68698486566544,-0.758575658798218,1.87879644052649
6.62595470833185,-1.13498110324144,0.366446174383163,-0.0747893965244293,1.19501395693427
6.63588370833895,-1.72024353593588,-0.810413564443588,0.635713963508606,2.00502873090716
6.64581270833151,-2.06738512784243,-1.53138870298862,1.02055957138538,2.76781040991097
6.65574170833861,-2.25998393297195,-1.68013894557953,1.22276023551822,3.07010371930804
6.66567070833116,-2.57545291185379,-1.64954982161522,1.69588783621788,3.49714281495605
6.67559970833827,-3.20660107702017,-1.79294635355473,2.89720501631498,4.6787545351763
6.68552870833082,-4.08834307104349,-1.90955269753933,4.22898234844208,6.18427297866643
6.69545770833793,-4.72329046458006,-1.42727435052395,4.9009721454978,6.95457495864426
6.70538670834503,-4.75425117909908,-0.23328987121582,4.84219856500626,6.79000849638096
6.71531570833758,-4.10614404201508,1.21019588470459,4.46044028699398,6.18227470491006
6.72524470834469,-2.90667662858963,2.29425154030323,3.52428819715977,5.11204131927869
6.73517370833724,-1.42725534707308,2.63503428518772,1.65192115992308,3.42188647217658
6.74510270834435,-0.0131305805593729,2.13476639449596,-0.486086930930615,2.18944752749105
6.7550317083369,1.09144887506962,1.04494947731495,-2.0099740947783,2.51459259497664
6.76496070834401,1.71834582209587,-0.218227443695068,-2.71774081170559,3.22280168504148
6.77488970833656,1.8598238825798,-1.14477080404758,-2.55102558374405,3.35815077042866
6.78481870834366,1.64859847962856,-1.54667917191982,-1.83701389431953,2.912853146969
6.79474770833622,1.14978976160288,-1.66326388120651,-1.18749026924372,2.3449086067396
6.80467670834332,0.606157457828522,-1.63503878653049,-0.780363846123219,1.91043095386263
6.81461004167795,0.119386110305786,-1.60199734032154,-0.594329125285149,1.71285598661809
6.82453904167051,-0.296321978867054,-1.59770665347576,-0.389947303533554,1.671087120785
6.83446804167761,-0.649429484903813,-1.52028425574303,-0.228824644982815,1.66894685124304
6.84439704167016,-0.943237745761871,-1.27061867237091,-0.173941801786423,1.5919877530987
6.85432604167727,-1.1957617405057,-0.942639575600624,-0.15677291482687,1.53068391785144
6.86425504166982,-1.35795327007771,-0.81406924366951,-0.194240410923958,1.59514110800245
6.87418404167693,-1.34544812232256,-0.925725334882736,-0.132914813160896,1.63855558131626
6.88411304166948,-0.96085306763649,-1.09868480443954,0.13765515089035,1.46604769965355
6.89404204167659,-0.146659241728485,-1.21431173980236,0.262049839943647,1.25089250266388
6.90397104166914,0.782964687645435,-1.18238301873207,0.357099400162697,1.46238958102218
6.91390004167624,1.59314260929823,-1.00610233068466,0.495575207769871,1.94831723800998
6.9238290416688,2.16634457498789,-0.753420168757439,0.390357631891966,2.32660049192943
6.9337580416759,2.52532590150833,-0.370051567554474,0.263591019809246,2.56587008579984
6.94368704166845,2.63227147579193,0.0776258808374405,-0.0593100625276566,2.63408363252966
6.95361604167556,2.50336814492941,0.406435282230377,-0.279745414853096,2.5515287975683
6.96354504166811,2.11500602155924,0.608061311244965,-0.411215381026268,2.2387691080273
6.97347404167522,1.60162574976683,0.734696214795113,-0.320872975587845,1.79107315227855
6.98340304166777,1.07282958626747,0.706649460196495,-0.447831230163574,1.36046668150185
6.99333204167488,0.541021521985531,0.454857829213142,-0.772012560367584,1.04671071715797
7.00326104166743,0.0689100942760706,0.0584657245874405,-1.13454417005181,1.13813765241434
7.01319004167453,-0.263997401297092,-0.329285949468613,-1.68064531445503,1.7328279018439
7.02311904166709,-0.540685307085514,-0.593791766166687,-2.07633282959461,2.22622714072888
7.03304804167419,-0.849918888285756,-0.707173955440521,-2.4090380845964,2.65064550873069
7.04297704166675,-1.18958174519241,-0.690952025055885,-2.68840299189091,3.01993875372197
7.05290604167385,-1.55804703623056,-0.695049753785134,-3.04320092797279,3.48879300265265
7.0628350416664,-1.97073533087969,-0.775002826452255,-3.43873466134071,4.03848030780051
7.07276404167351,-2.2798852238059,-0.802726230025292,-3.97240009367466,4.64996865992939
7.08269304166606,-2.42072389125824,-0.731715304255486,-4.359692761302,5.04006273940505
7.09262204167317,-2.53667768597603,-0.692109189033508,-4.65067067742348,5.34251687521152
7.10255104166572,-2.86745789140463,-0.647837580442429,-4.38481766223908,5.27907512929073
7.11248004167283,-3.20361198037863,-0.274327969551086,-3.46847243070602,4.72955458349634
7.12240904166538,-3.42547142207623,0.166189563274384,-3.16140239238739,4.66432615937125
7.13233804167248,-3.49144731044769,0.248794348239899,-2.72824591934681,4.43795321581707
7.14226704166504,-3.22998555421829,0.122712591290474,-2.64482369363308,4.1764766766885
7.15219604167214,-2.69023375511169,0.0653093057870865,-3.15836242496967,4.1493223748011
7.16212504166469,-2.03521491676569,0.286579640507698,-1.39455976366997,2.48375211770948
7.1720540416718,-1.10707753233612,1.38021829783916,-1.05827425852418,2.06169047593192
7.18198304166435,-0.257934131026268,2.8615764695406,-0.794028496742249,2.98087758229275
7.19191204167146,0.323089070320129,3.62761142134666,1.45342953085899,3.92127639587139
7.20184104167856,0.702926976531744,3.64798838317394,3.53693221628666,5.12950436988941
7.21177004167112,1.22402791187167,3.21199133276939,5.65772844314575,6.62004711366974
7.22169904167822,2.26358114004135,2.47965622365475,6.9225536942482,7.69377957929716
7.23162804167077,3.74676159650087,1.34203013241291,6.82029524803162,7.89656220184712
7.24155704167788,5.17695049166679,-0.0704700583219528,6.46265088737011,8.28079941275688
7.25148604167043,6.28882369101048,-1.07518484473228,6.17841305673122,8.88133513423198
7.26141504167754,6.88935437321663,-1.13393006622791,5.41951930940151,8.83856270101822
7.27134404167009,6.84537746429443,-0.411845126152039,4.29410805165768,8.09124051032452
7.2812730416772,6.02651759684086,0.526652866601944,3.07742029577494,6.78725226168735
7.29120204166975,4.4824150004983,1.17737020075321,2.26435297250748,5.15805575875419
7.30113104167685,2.53030772924423,1.51652040302753,1.14985729694366,3.16614325967833
7.31106004166941,0.543461565077305,1.56101011276245,-0.177876977920532,1.66245098097269
7.32098904167651,-1.27143435895443,1.5419516980648,-0.822865210175514,2.16131152831145
7.33091804166907,-2.83100371778011,1.45993631243706,-0.851543025523424,3.29713839727342
7.34084704167617,-3.9420036354661,1.10330293536186,-0.600214347839356,4.1372608441526
7.35077604166872,-4.59372961431742,0.411039379835129,-0.310144650489092,4.62249876640969
7.36070504167583,-4.73158971011639,-0.389649680256844,-0.288768399506807,4.75638047750149
7.37063404166838,-4.27843546718359,-1.11891792476177,-0.398132236003876,4.44021358118651
7.38056304167549,-3.43308917462826,-1.62014768242836,-0.660454702377319,3.85320388867758
7.39049204166804,-2.42417944952846,-1.92494023025036,-0.975724437385798,3.24562460418087
7.40042104167515,-1.43190242171288,-2.13359929025173,-1.21860885858536,2.84387025493299
7.4103500416677,-0.58507576033473,-2.17034728646278,-1.45312503710389,2.67661976430083
7.4202790416748,0.10071010351181,-2.05124301195145,-1.60100272893906,2.60402575968428
7.43020804166736,0.566638027578592,-1.97370483934879,-1.64276193514466,2.62968747624642
7.44013704167446,0.849765179604292,-2.01569018661976,-1.60312482967973,2.71203189664848
7.45006604166701,1.01025648504496,-2.0895270717144,-1.43727601289749,2.72992745073074
7.45999404166651,1.08637466132641,-2.09919953584671,-1.23321344912052,2.66602025633018
7.46992404166667,1.10439358726144,-2.07023944616318,-1.05927734836936,2.57442130600309
7.47985304167378,1.08000718966126,-1.98923036634922,-0.931975569874048,2.44786262747074
7.48978104167327,0.976056705415249,-1.80348303616047,-0.954117952287197,2.26176453698907
7.49971004166582,0.81137440815568,-1.47227510690689,-1.06450797513127,1.98974863984016
7.50963904167293,0.737531968206167,-0.915048903822899,-0.823632511049509,1.43514403938116
7.51956804166548,0.735944741517305,-0.344057770371437,-0.615717216879129,1.01936161546397
7.52949704167259,0.787992123663426,0.174687321782112,-0.924012685418129,1.22688495392218
7.53942604166514,0.798101813346148,0.508680864572525,-1.260148794204,1.57597516160073
7.54935504167224,0.81396223962307,0.500725727677345,-1.15517358541489,1.49922873315932
7.5592840416648,0.879421672672033,0.284720225930214,-0.909223469048739,1.29658605656858
7.5692130416719,0.981459532678127,0.0599801534414291,-0.669343639612198,1.18948784818548
7.57914204166445,0.941054687798023,0.0316392838954926,-0.687115666866303,1.16563841278725
7.58907104167156,0.627466904371977,0.209248459339142,-0.887953637391329,1.10723136515114
7.59900004166411,0.195235753208399,0.543240832686424,-0.787879053130746,0.976719511421212
7.60892904167122,-0.117943748384714,0.767773913741112,-0.548371837511659,0.950841302521243
7.61885804167832,-0.170170201510191,0.841821298599243,-0.808314267843962,1.17940364246404
7.62878704167088,0.065142075419426,1.01112041115761,-1.60169445455074,1.89526597119984
7.63871604167798,0.386106121391058,1.39927495837212,-2.36919925019145,2.7785164086632
7.64864504167053,0.62402128636837,1.97971168398857,-1.97051401376724,2.862094756645
7.65857404167764,0.84833845898509,2.79987431108952,-0.518383588045836,2.97114386108237
7.66850304167019,1.26261968135834,3.50328149020672,0.163436694145203,3.72745237560073
7.6784320416773,1.75245672404766,3.94837446928024,-0.608628491163254,4.36247569157463
7.68836104166985,1.89925414279103,4.12604445576668,-1.58786973640323,4.81172936163882
7.69829004167696,1.43261446639895,3.74094332456589,-1.71841788902879,4.35889908214033
7.70821904166951,0.493409106731415,3.38191843628883,-1.4787204927206,3.72390106634262
7.71814804167661,-0.55526899382472,3.04837395966053,-0.740587138384581,3.1858086513443
7.72807704166917,-1.25886956959963,2.29932107627392,0.364435755461454,2.64659090622638
7.73800604167627,-1.41250779211521,1.32430546760559,0.977843906879425,2.16913391484654
7.74793504166883,-1.35890695095062,0.391023775935173,0.88260095000267,1.66688695826506
7.75786404167593,-1.23261878728867,-0.551561420559883,1.28418318942189,1.86351698125367
7.76779304166848,-1.01839149691165,-1.55921326339245,1.85105846777558,2.62577316096508
7.77772204167559,-0.880585122406483,-2.53590702295303,2.15516031324863,3.44252386522855
7.78765104166814,-0.716209950149059,-3.14378882467747,2.7601056432724,4.24435484248002
7.79758004167525,-0.427254001200199,-2.99224887549877,3.35466690301895,4.51551650917988
7.80750529166835,0.0460265772789717,-1.92921512961388,3.63300664722919,4.11372419602465
7.81743429167545,0.479236040711403,-0.441512144207954,3.20312461495399,3.26873178084774
7.82736329166801,0.7631742015481,0.823016068339348,2.51563063323498,2.75466654851791
7.83729229167511,1.05409715384245,1.48431686282158,1.9101806885004,2.63877009641142
7.84722129166767,1.39953896015883,1.53692367732525,1.17154578924179,2.38607695333063
7.85715029167477,1.77079242289066,1.13603389441967,0.50840282946825,2.16442885104792
7.86707929166732,2.01902894675732,0.389350302815437,0.198819365501404,2.0658171957472
7.87700829167443,2.03556984275579,-0.527464460134506,0.119324568361044,2.10618178086707
7.88693729166698,1.80777313828468,-1.40962102174759,0.124546862840652,2.29577591796321
7.89686629167409,1.41205112457275,-2.05854969263077,0.12145500138402,2.49925319501618
7.90679529166664,0.973080838099122,-2.42252834200859,0.104162153452635,2.61273413104404
7.91672429167375,0.588889752924442,-2.47493869006634,0.00798144936561585,2.54404724095695
7.9266532916663,0.251239288374782,-2.23518004417419,-0.0805142591893673,2.25069623801846
7.9365822916734,0.13800393730402,-1.90139056921005,-0.110648615956306,1.90960056022336
7.94651129166596,0.274287258312106,-1.54461919784546,0.00381603911519051,1.56878823573472
7.95644029167306,0.580729378759861,-1.3090956902504,0.157859035134316,1.44079756126963
7.96636929166562,0.842332564517856,-1.07201214551926,0.117325697690248,1.36839303883297
7.97629829167272,0.938438058793545,-0.793913306593895,0.0971625977754593,1.23304699788188
7.98622729166527,0.787970781326294,-0.560450942516327,-0.0587580853700638,0.968739244475914
7.99615629167238,0.529108770266175,-0.4887623244524,-0.289687581807375,0.776378513117218
8.00608529166493,0.241938780248165,-0.57064322412014,-0.425247529149056,0.751667162825127
8.01601429167204,-0.027951956614852,-0.590131993889809,-0.470498619452119,0.755252297578306
8.02594329166459,-0.17672266446054,-0.499691939949989,-0.491887149587274,0.723101585473375
8.03587229167169,-0.222827959880233,-0.460190489888191,-0.656841780915856,0.832387356850544
8.04580129166425,-0.247744042128325,-0.557657142877579,-0.800756449252367,1.00676188368041
8.05573029167135,-0.336627421081066,-0.841866906881333,-0.951934309601784,1.31462421981441
8.06565929167846,-0.525636766701937,-1.14947605848312,-0.74197957970202,1.46564760983995
8.07558829167101,-0.702234154567123,-1.28682890832424,-0.899563795700669,1.71996408964692
8.08551729167812,-0.817255903109908,-1.33332713663578,-1.56587733507156,2.21306129443994
8.09544629167067,-0.868033050745726,-1.37551304340363,-2.0206158810854,2.59391712447698
8.10537529167777,-0.738533011525869,-1.18599776744843,-1.73237738549709,2.22556804418285
8.11530429167033,-0.299122137352824,-0.727562611699104,-2.43089336872101,2.55500762759893
8.12523329167743,-0.0126314476132393,-0.384984771609306,-2.44292050659657,2.47310198523836
8.13516229166999,0.0228124002367258,-0.0799098032712936,-2.10717338383198,2.10881143106569
8.14509129167709,-0.0549638271331787,0.383737560510635,-2.22008253335953,2.25367300036359
8.15502029166964,-0.13814660936594,0.81333483338356,-2.77780516505241,2.89772317032981
8.16494929167675,-0.146236816942692,0.959860795140267,-3.19485138952732,3.33913062844829
8.1748782916693,0.00364340007305145,0.801135787367821,-3.30989711165428,3.4054736401715
8.18480729167641,0.256139401271939,0.543478229641914,-3.26180493235588,3.3166771618172
8.19473629166896,0.528309528976679,0.256205109357834,-3.03969727635384,3.09588622987692
8.20466529167607,0.715884991139174,0.0788736766576767,-2.74193015813828,2.83494151077514
8.21459429166862,0.694685179889202,0.161192532777786,-2.69736443459988,2.79004398259693
8.22452329167572,0.32560169197619,0.453684877753258,-3.08458167314529,3.13472335755862
8.23445229166828,-0.333588184565306,1.01271436214447,-1.33917332902551,1.71179924680101
8.24438129167538,-0.462076801657677,2.35681382417679,-1.43011902093887,2.79523286802945
8.25431029166794,-0.453735894709826,3.36535795211792,-0.890669961422682,3.51066993438747
8.26423929167504,-0.646600309610367,3.56162676215172,1.56149660110474,3.94227710701889
8.27416829166759,-0.763413498848677,3.50751019656658,3.52427357912064,5.03050019478488
8.2840972916747,-0.609370941370726,3.02128848731518,4.60476652622223,5.54106414227331
8.29402629166725,-0.0498055596649647,2.08662159025669,4.90008249163628,5.32609412980463
8.30395529167436,0.736330657750368,0.663912160992622,4.79331350326538,4.89477441110857
8.31388429166691,1.44448153674603,-0.897175719738007,4.68153345108032,4.98078373709114
8.32381329167401,2.00575489014387,-1.9989268040657,4.13412764668465,5.01096522103584
8.33374229166657,2.34628883600235,-2.39474938988686,3.44233186841011,4.80515812794798
8.34367129167367,2.58310720950365,-2.04119515657425,3.02987921655178,4.47426961524497
8.35360029166623,2.66490829467773,-1.21347675740719,2.1882285104692,3.65548985415634
8.36352929167333,2.44235405758023,-0.180435719490051,1.36578766196966,2.80410882974165
8.37345829166588,1.83445793017745,0.766344269514084,1.05783542498946,2.25200693235404
8.38338729167299,1.02417051941156,1.49872440218925,0.587125940322876,1.90783043175994
8.39331629166554,0.142680101841688,1.84302307784557,0.284036540240049,1.87023218695553
8.40324529167265,-0.71462974011898,1.69200470030308,0.283178315162659,1.85843093212758
8.4131742916652,-1.3177941544354,1.23128971517086,0.35213248282671,1.83756716383683
8.42310329167231,-1.66693490937352,0.641504461169243,0.413974389731884,1.83345977898127
8.43303229166486,-1.82311184674501,-0.056548422574997,0.529116883277893,1.89918382628103
8.44296129167196,-1.73346628323197,-0.809711313843727,0.51137511536479,1.98041467260848
8.45289029166452,-1.43512131392956,-1.5736447763443,0.35743853867054,2.15955860692354
8.46281929167162,-0.958276199698448,-2.30582142591476,0.199437416195869,2.50497125853671
8.47274829166418,-0.41826244533062,-2.82348712205887,-0.197946960926056,2.86115466218555
8.48267729167128,0.0874975888431072,-2.91720570981503,-0.607046380788088,2.9809814306464
8.49260629167839,0.518351866900921,-2.69359005689621,-1.01125899016857,2.92348435906994
8.50253529167094,0.912860583364964,-2.13268770933151,-1.26894169092178,2.64421714788225
8.51246429167804,1.12435671240091,-1.36009159684181,-1.15871115088463,2.11107524728634
8.5223932916706,0.927817176282406,-0.651674523353577,-0.912674934267998,1.45550676145247
8.5323222916777,0.516379308700562,-0.227998141050339,-0.501295831203461,0.754935926525191
8.54225129167025,0.266437005847693,0.108743593096733,-0.118714996129274,0.311299048232796
8.55218029167736,0.0930809488892555,0.279253664016724,-0.0142660367488861,0.294703565837623
8.56210929166991,-0.0101567597687244,0.265750104188919,-0.0779458697140217,0.277131442191059
8.57203829167702,0.0790346212685108,0.211868596673012,-0.155934277921915,0.274682130191022
8.58196729166957,0.189396285116673,0.139040940999985,-0.427068936824799,0.487433290708401
8.59189629167668,0.158329151272774,0.034559383392334,-0.728648439645767,0.746452288978624
8.60182529166923,0.0335369977355003,-0.157356759309769,-0.88008547782898,0.894671072631191
8.61175429167633,-0.0719049650430679,-0.399727356433868,-1.01197878241539,1.09043722402456
8.62168329166889,-0.143762129098177,-0.621205267310143,-1.16410476878285,1.32729177146537
8.63161229167599,-0.173057995140553,-0.793760694265366,-1.30338296055794,1.53584252165236
8.64154129166855,-0.115877634733915,-0.686691159009934,-1.53314447566867,1.68389558980576
8.65147029167565,0.0342388097941875,-0.442454715371132,-1.59504193112254,1.65562593398672
8.6613992916682,0.146954416483641,-0.13880529820919,-1.8763678483665,1.88722516243254
8.67132829167531,0.242417667210102,0.167198792695999,-1.97728099644184,1.99909026823319
8.68125729166786,0.426591950207949,0.695574833750725,-1.61584179282188,1.81017947749924
8.69118629167497,0.610305034071207,1.3479223716259,-1.87477755188942,2.38833787886277
8.70111529166752,0.588195396065712,1.63710460782051,-2.10614719748497,2.73165542087099
8.71104429167463,0.588734509348869,1.54523549437523,-1.73282469749451,2.39521240975038
8.72097329166718,0.613577135950327,1.07014512956142,-1.68914950489998,2.09162940072779
8.73090229167428,0.50694950401783,0.321539558172226,-2.272275364995,2.35023846055176
8.74083129166684,0.283182115852833,-0.309898921251297,-2.92657061040402,2.95652583107473
8.75076029167394,0.048691226541996,-0.554276867508888,-3.26352518320084,3.31061781285362
8.7606892916665,-0.151152132600546,-0.354136615991592,-2.6969551295042,2.72430297150201
8.7706182916736,-0.205663823783398,0.904837911128998,-0.664792166948319,1.14148056447113
8.78054729166615,-0.0218308719992638,2.37643707990646,0.0212125289440155,2.37663201886847
8.79047629167326,0.176343399435282,3.40334906637669,-0.72624596491456,3.48443898837189
8.80040529166581,0.0292732080817223,4.43376353502274,-1.02110453188419,4.54991983118858
8.81033770833165,-0.0272996266186237,5.08789622783661,0.561366762667894,5.11884419933599
8.82026670833875,0.303520193696022,4.91386320948601,1.95337933301926,5.2965901265048
8.8301957083313,0.80997524254024,3.63732832431793,2.53234606862068,4.50544047166004
8.84012470833841,1.30384342879057,1.93525588810444,2.53828683972359,3.4479157646261
8.85005370833096,1.09213679999113,0.0126171219348907,2.87012568354607,3.07091898639667
8.85998270833807,0.261833346784115,-1.69585333764553,3.0252049523592,3.47797933404876
8.86991170834517,-0.659187903106213,-2.94438181400299,2.48673486292362,3.90995693540388
8.87984070833772,-1.33223399966955,-3.65226620614529,2.01009074673057,4.37656951053199
8.88976970834483,-1.49372941821814,-3.4941054546833,1.60319485008717,4.12434652164969
8.89969870833738,-1.19946273565292,-2.51344318985939,1.53093715175986,3.17803022098739
8.90962770834449,-0.595493854098022,-1.16167802810669,1.83560924693942,2.25245867413897
8.91955670833704,0.163751566708088,-0.0360545164346695,1.78441877424717,1.79227923763025
8.92948570834415,0.954306817352772,0.670974428057671,1.72805731639266,2.08496769123445
8.9394147083367,1.7083143389225,1.10633296251297,1.60864781722426,2.59423559153199
8.9493437083438,2.41245563596487,1.21346155464649,1.4055307482183,3.04433043940549
8.95927270833636,2.98850899636745,0.953040018081665,1.1675480479002,3.34703446973435
8.96920170834346,3.29934317976236,0.285852831602097,0.966412746459246,3.44983055463573
8.97913070833602,3.25293236732483,-0.607251471877098,0.641232565641403,3.37068280022394
8.98905970834312,2.91182685613632,-1.41411109864712,0.242486225813627,3.24611235312998
8.99898870833567,2.38739125370979,-1.92026187300682,-0.105785048156977,3.06565378600181
9.00891770834278,1.85128110051155,-2.12220423638821,-0.307161693423986,2.83290325284193
9.01884670833533,1.39693110197783,-2.24375498592854,-0.514853623956442,2.69275457378745
9.02877570834244,0.931604417860508,-2.11090741574764,-0.462757563740015,2.35328737557363
9.03870470833499,0.790582732558251,-1.81163814783096,-0.187452962994576,1.98549551725284
9.0486337083421,0.605587939023972,-1.49014770627022,-0.0621687662601471,1.6097024240188
9.05856270833465,0.551146012432873,-1.23669254243374,-0.0194491548836231,1.35408590612175
9.06849170834175,0.413148835971952,-1.02021750926971,0.0497503034770489,1.101821591539
9.07842070833431,0.304650533571839,-0.779316317439079,-0.046329974681139,0.838028840068389
9.08834970834141,0.170370614826679,-0.652708311080933,-0.276726497411728,0.729130879966215
9.09827870833396,0.0166911694407463,-0.607743222713471,-0.523411754965782,0.802240789992515
9.10820770834107,-0.0639164990186691,-0.536810649633408,-0.668025677204132,0.859365636857027
9.11813670833362,-0.0993123266100884,-0.474768767952919,-1.01022695660591,1.12063679445817
9.12806570834073,-0.249460492283106,-0.772195578217506,-1.06813982695341,1.34143178661938
9.13799470833328,-0.285894712284207,-0.960927911996842,-1.06171388313174,1.46025840459878
9.14792370834039,-0.285226010084152,-0.96316447198391,-0.99217777132988,1.41189815739015
9.15785270833294,-0.319430467486382,-0.815051575899124,-1.14323590993881,1.43990737226665
9.16778170834004,-0.503927443698049,-0.706853528022766,-1.46889059230685,1.70623103674674
9.17770970833954,-0.782332457453013,-0.547197643518448,-1.48497394368053,1.7653942756412
9.18763870833209,-0.923403624817729,-0.202065739631653,-2.15431071281433,2.35256444434706
9.19756770833919,-1.18650208979845,-0.127637701034546,-3.11920069813728,3.3396843544086
9.20749670833175,-1.36364758104086,-0.0016845828294754,-2.8689878153801,3.17657498697848
9.21742570833885,-1.39858484074473,0.279691035747528,-3.50677169322968,3.78572507462909
9.2273547083314,-1.51157599747181,0.490327039361,-3.26241421222687,3.62886057789512
9.23728370833851,-1.58491089910269,0.713890652060509,-2.56944431304932,3.1021970438796
9.24721270833106,-1.60325332224369,0.876680059432983,-2.42737948447466,3.038282459473
9.25714170833817,-1.57367284297943,0.807734954953194,-2.84372433543205,3.3489774663489
9.26707070833072,-1.35595074489713,0.447378655672073,-3.33005714178085,3.62326243207192
9.27699970833783,-0.97775532156229,0.0618845915794373,-4.01629748046398,4.13406345175055
9.28692870834493,-0.72062225908041,-0.0568238264322281,-4.48385897040367,4.54175259718118
9.29685770833748,-0.644313902109861,0.223491691946983,-2.77320106744766,2.85582441710169
9.30678670834459,-0.429929102361202,1.26013344526291,-2.10892988741398,2.49406507592629
9.31671570833714,-0.299415594488382,2.56735100984573,-1.01056799545884,2.77528171172305
9.32664470834425,-0.181721229851246,3.33107221841812,1.0324376052618,3.492132892439
9.3365737083368,-0.021797689050436,3.43894282221794,2.46752325117588,4.23266746494759
9.34650270834391,0.474215913712978,3.10273143053055,3.22520896375179,4.50042174942368
9.35643170833646,1.25307278618217,2.42977362692356,3.65884549319744,4.56739987614998
9.36636070834356,2.13132545426488,1.42946296334267,4.26259828358889,4.97550567106708
9.37628970833612,3.03682775527239,0.338512855768204,4.3724812066555,5.3343702225538
9.38621870834322,3.67092204004526,-0.755335716605187,4.08190031647682,5.54148994969071
9.39614770833578,3.97431213319302,-1.35106232643127,4.09735655397177,5.86590632999902
9.40607670834288,4.03177622973919,-1.20970237970352,4.30233800768852,6.01902913654283
9.41600570833543,3.73463125526905,-0.419234837293625,4.08384159207344,5.54986401732349
9.42593470834254,3.09520401746035,0.741905831694603,3.43623029887676,4.68384359684691
9.43586370833509,2.15532052695751,1.64459079802036,2.7281485632062,3.84615132954772
9.4457927083422,1.13374631747603,2.1509596735239,1.70714708849788,2.97091895064192
9.45572170833475,0.139082163870335,2.1982595551014,0.559187359213829,2.27252710052179
9.46565070834186,-0.768443858474493,1.75414072215557,0.00395549520850182,1.91507996770213
9.47557970833441,-1.49067600220442,1.07945915937424,-0.373620707988739,1.87801476398432
9.48550870834151,-1.93576474204659,0.500029909014702,-0.557287745028734,2.07552033890762
9.49543770833407,-2.01208435490727,0.00142789006233215,-0.53931515827775,2.08310977389114
9.50536670834117,-1.79596190884709,-0.493532482981682,-0.427162053734064,1.91089531632114
9.51529570833372,-1.47822362557054,-0.947024402618408,-0.425778017789125,1.80645709242763
9.52522470834083,-1.11395115360618,-1.29938521921635,-0.520980044156313,1.78905263392321
9.53515370833338,-0.696691798120737,-1.58933870315552,-0.555106441229582,1.82195503128133
9.54508270834049,-0.252429269850254,-1.79696222126484,-0.63581804394722,1.92277360756254
9.55501170833304,0.121320661604404,-1.97084321200848,-0.766546583175659,2.11814431364586
9.56494070834015,0.470611251443625,-2.02013348579407,-0.965799665898085,2.28805228197711
9.5748697083327,0.738870103508234,-1.95710751771927,-1.07437836751342,2.35169890554729
9.5847987083398,0.884344882071018,-1.89713847398758,-1.10793977737427,2.36827591513685
9.59472770833236,0.830668611824513,-1.91676289916039,-1.15373750925064,2.3864409891133
9.60465670833946,0.659097417443991,-1.91109577775002,-0.993278655856848,2.25239849174076
9.61458570833202,0.456149917691946,-1.84694246649742,-0.852644056230784,2.08477123651197
9.62451470833912,0.269270420372486,-1.77285064280033,-0.885097711086273,1.99972596100948
9.63444370833167,0.159578993618488,-1.57285481750965,-0.918892278671265,1.8285788886371
9.64437270833878,0.177028693109751,-1.18298177361488,-0.819415791481733,1.44990595357726
9.65430170833133,0.27645372480154,-0.670047644376755,-0.728454896807671,1.02763663051419
9.66423070833844,0.460928408503532,-0.237630844116211,-0.603790504932404,0.795918582323286
9.67415970833099,0.751586920469999,0.124816419482231,-0.636578328162432,0.992821235409486
9.6840887083381,0.967189256697893,0.442329000234604,-1.01092262908816,1.46733587318067
9.6940177083452,1.05807589173317,0.64063264131546,-1.12039551615715,1.66889810546085
9.70394670833775,1.06751943737268,0.663661900162697,-0.818985582590103,1.50026072780251
9.71387570834486,1.03426222890615,0.649735586643219,-0.578441070914269,1.35146171355795
9.72380470833741,0.972344892919064,0.697303855419159,-0.559431188106537,1.32085219150157
9.73373370834452,0.715845668613911,0.747035593986511,-1.06776531279087,1.48681537628431
9.74366270833707,0.243006043285131,0.667493580579758,-1.50070426940918,1.66033518345279
9.75359170834418,-0.0772782638669014,0.53510910987854,-1.60614652454853,1.69470361652432
9.76352070833673,-0.159027747362852,0.332778491377831,-1.85123081445694,1.88761406997032
9.77344970834383,-0.0471504852175713,0.196419668197632,-2.43060042321682,2.43897976040247
9.78337870833639,0.168579027950764,0.182426696419716,-2.8650339281559,2.87578124997641
9.79330770834349,0.413864315897226,0.36938907802105,-3.08280587375164,3.13231927143003
9.80323670833604,0.555834273397923,0.704858458042145,-2.95677791118622,3.09003443369748
9.81316216666892,0.539582960754633,1.28773581147194,-1.58423642277718,2.11168613551774
9.82309116667602,0.622488731145859,2.18687853455544,-0.481014178991318,2.32407069292085
9.83302016666858,0.65918205589056,2.73019479632378,-0.87335299372673,2.941297343067
9.84294916667568,0.177682777270675,3.11244365572929,-1.69825245022774,3.55006169863746
9.85287816666823,-0.618441069200635,3.32246277809143,-1.41919569119811,3.66542557935533
9.86280716667534,-0.918864285126329,3.44256692647934,-0.544402528256178,3.60443514722374
9.87273616666789,-0.983282694518566,3.12752479434013,0.45933328807354,3.31047477955722
9.882665166675,-0.826955629885197,2.30153132379055,1.31406816244125,2.77627037295175
9.89259416666755,-0.619641429483891,1.39467553853989,0.706515558958054,1.68173707635414
9.90252316667466,-0.716776545345783,0.515260736346245,0.939476378113031,1.2891385136634
9.91245216666721,-0.821136773228645,-0.441036765575409,1.82175967812538,2.04635953678259
9.92238116667431,-0.979195417687297,-1.40484793961048,1.87695651680231,2.54074539562985
9.93231016666687,-1.32131373971701,-2.08669935822487,2.46728643894196,3.49108673369309
9.94223916667397,-1.70509340018034,-1.99777548730373,3.12305810630322,4.08067915136151
9.95216816666652,-2.00148993104696,-1.02964439034462,3.42728113532066,4.10029090372566
9.96209716667363,-2.0354116755724,0.323320620059967,3.30781024038792,3.89731259957776
9.97202616666618,-1.81361304491758,1.28155764341354,2.76763744175434,3.5484361737373
9.98195516667329,-1.33057777583599,1.44077147841454,2.18854265213013,2.93870355952318
9.99188416666584,-0.550090845823288,0.893027704954147,1.57944813787937,1.89598387143057
10.0018131666729,0.375716642439365,0.167564828395844,0.933659421801567,1.02027490562107
10.0117421666655,1.17807011246681,-0.492221537232399,0.552741827219725,1.39127810273906
10.0216711666726,1.66821033328772,-1.0718431609869,0.307242969721556,2.0065322624582
10.0316001666652,1.83905340313911,-1.60903621852398,0.126770558953285,2.44687264620307
10.0415291666723,1.82569368481636,-1.95506859362125,-0.0340139843523502,2.67518365494297
10.0514581666648,1.6825386428833,-2.07455703020096,-0.232340868115425,2.6811761291173
10.0613871666719,1.40594780087471,-2.11258907496929,-0.372016378194094,2.56478420224952
10.0713161666645,1.00125937432051,-2.04837436795235,-0.437362959980965,2.32156073465938
10.0812451666716,0.66203403532505,-1.92277617573738,-0.422653119564056,2.0770153936332
10.0911741666641,0.423931905627251,-1.67184525489807,-0.395882227420807,1.76960661021641
10.1011031666712,0.294981833584607,-1.55981669604778,-0.316076066046953,1.61862487530066
10.1110321666783,0.300042014010251,-1.5617866230011,-0.134596033841372,1.59603219211967
10.1209611666709,0.334533862061799,-1.56301044523716,-0.0181031258404255,1.59851252104938
10.130890166678,0.270178492963314,-1.45912354946136,-0.0545369803905487,1.48492835951193
10.1408191666706,0.0752738748863339,-1.33151333034039,-0.122534397393465,1.33925672806192
10.1507481666777,-0.134812234640121,-1.26451827228069,-0.123503134846687,1.27766733692983
10.1606771666702,-0.313824997656047,-1.30588498413563,-0.318035468012095,1.3802058831415
10.1706061666773,-0.433332766592503,-1.41505425453186,-0.446686930060387,1.5458606157601
10.1805351666699,-0.502381074428558,-1.45262378454208,-0.683658208250999,1.68222803123427
10.190464166677,-0.624953113272786,-1.3832933485508,-0.789427176564932,1.71092435514651
10.2003931666695,-0.796990111470223,-1.2048521143198,-0.713884366303682,1.61136362861243
10.2103221666766,-1.0118507283926,-0.902071593403816,-0.810215490013361,1.5792479844636
10.2202511666692,-1.28431782156229,-0.510022215843201,-0.84967688664794,1.62220397581187
10.2301801666763,-1.56967831760645,-0.00454387128353119,-0.981906552314758,1.85149970159563
10.2401091666688,-1.70703701466322,0.560594199299812,-1.23609963476658,2.18086761010131
10.250038166676,-1.64777782291174,0.968602967262268,-1.43054689094424,2.38743122813187
10.2599671666685,-1.33441413402557,1.16453380823135,-1.66906548857689,2.4336350746896
10.2698961666756,-0.844317182600498,1.1590397644043,-2.02901716053486,2.48458353010112
10.2798251666682,-0.425939254760742,0.972921136021614,-2.27626492023468,2.51184827821163
10.2897541666753,-0.265532295405865,0.637174597978592,-2.5771790099144,2.66802371004383
10.2996831666678,-0.36442186832428,0.25873227596283,-2.89151421368122,2.92585032711149
10.3096121666749,-0.779921211898327,-0.175367352962494,-2.95533014059067,3.06153671301484
10.3195411666675,-1.33481320649385,-0.509086661338806,-2.89774266779423,3.23075967749672
10.3294701666746,-1.76663300603628,-0.594845434427261,-2.86029066681862,3.41410251274994
10.3393991666671,-1.9578506988287,-0.420173900127411,-2.79752723872662,3.44033197768321
10.3493281666742,-1.82095159292221,0.0018477201461792,-2.74753003656864,3.29617800182007
10.3592571666668,-1.28531652599573,0.513379687070847,-2.97344422996044,3.27978167928595
10.3691861666739,-0.661413280293346,0.970074126720429,-2.55423512041569,2.81116139505468
10.3791151666665,-0.213546162843704,1.65720967411995,-0.922360262274742,1.90858437620283
10.3890441666736,0.264976298287511,2.93520402431488,-0.997246284037828,3.11129157329166
10.3989731666661,0.168185291066766,3.4823180526495,0.747742960900068,3.56566190875066
10.4089021666732,-0.390335412472487,3.20934078991413,3.16095040261745,4.52148620343402
10.4188311666658,-0.804939693510532,2.97433593034744,3.74312842905521,4.84825871557469
10.4287601666729,-0.871902299523354,2.49402809500694,4.44112517952919,5.16758963336353
10.4386891666654,-0.439809435009956,1.56228363633156,4.55304030239582,4.83366718907226
10.4486181666725,0.403621309697628,0.160027767419815,3.84561257779598,3.87004588428743
10.4585471666651,1.39328185468912,-1.26055795311928,3.19285924315453,3.70467148697094
10.4684761666722,2.19028819218278,-2.23739263057709,2.30919322282076,3.89045774793883
10.4784051666647,2.62683795064688,-2.50278722405434,1.84226644814014,4.06917278740916
10.4883341666718,2.73699189215899,-2.00556924104691,1.80568451285362,3.84368692251813
10.4982631666644,2.58972830414772,-0.730366351604462,1.23046452686191,2.95874477586786
10.5081921666715,2.02937223270536,0.962178631424904,0.894974096864462,2.41766788697385
10.5181211666641,1.11226379334927,2.43602020740509,0.992156136631966,2.85581844596923
10.5280501666712,0.153134192526341,3.35328871428967,1.19138012945652,3.56193513348671
10.5379791666783,-0.755909182280302,3.5161073577404,1.46056342631578,3.88170776402644
10.5479081666708,-1.58955724284053,2.93606824278832,1.6616656909883,3.7293862528819
10.5578371666779,-2.16084278360009,1.88578376591206,1.87451808169484,3.42625743134035
10.5677661666705,-2.26558541938663,0.801051587462425,1.58916167870164,2.88097132567597
10.5776951666776,-2.03523874416947,-0.277712922692299,0.634086829572916,2.14974122178384
10.5876241666701,-1.69102792292833,-1.35904494524002,-0.202634088993073,2.17890779367274
10.5975531666772,-1.34349266722798,-2.19210653007031,-0.714377871304751,2.66845260948778
10.6074821666698,-0.886422836333513,-2.68798374652863,-1.07944117918611,3.02922355162149
10.6174111666769,-0.352051060348749,-2.91734019577503,-1.05534772709012,3.12227042263345
10.6273401666695,0.0443629713356495,-2.84295074880123,-0.835665496140719,2.96355763479898
10.6372691666766,0.2223422755301,-2.58811798095703,-0.494853222817183,2.64436579976628
10.6471981666691,0.169694822877646,-2.09571927309036,-0.0850180770456791,2.10429648052227
10.6571271666762,-0.0335853834450245,-1.46324115872383,0.352846574038267,1.50555749520739
10.6670561666688,-0.267958597540855,-1.00220983922482,0.660247710943222,1.22969647134602
10.6769851666759,-0.427828636318445,-0.716297950744629,0.65056369856,1.05799490649961
10.6869141666684,-0.520148716270924,-0.58616231918335,0.444117078781128,0.900766857257623
10.6968431666755,-0.500883894860745,-0.600152952075005,0.0662887144088745,0.78451413988098
10.7067721666681,-0.283141477704048,-0.648260918855667,-0.305172616839409,0.77041653758252
10.7167011666752,0.0696379995346069,-0.664124414920807,-0.677630898356438,0.951364453761249
10.7266301666677,0.290729774907231,-0.685230524539948,-0.886636186614633,1.15766506434004
10.7365591666749,0.325027129948139,-0.652090260386467,-0.814548130631447,1.09286458447897
10.7464881666674,0.301943784356117,-0.664433732628822,-0.61405002951622,0.953781774157608
10.7564171666745,0.302135426849127,-0.75365990459919,-0.490242474004626,0.948486558300085
10.7663461666671,0.341425426974893,-0.773036992549896,-0.501876532807946,0.982872101658655
10.7762751666742,0.396264196783304,-0.803744814991951,-0.382690762728453,0.974414316990698
10.7862041666667,0.38972393989563,-0.688637697100639,-0.666497215032578,1.03456520569852
10.7961331666738,0.224189703315496,-0.198238736987114,-1.27568937778473,1.31032171946729
10.8060621666664,-0.199138331115246,0.50588180243969,-1.95658828496933,2.03071666902062
10.815993666678,-0.746641637831926,0.984161238670349,-1.54922563433647,1.98145076777869
10.8259226666705,-1.00281202934682,1.04434136688709,-1.16709963954985,1.85967804348809
10.8358516666776,-0.988754518926144,0.682807438373566,-1.67824210882187,2.06406348555901
10.8457806666702,-0.748763373121619,0.346510092616081,-2.07315252900124,2.2312949696796
10.8557096666773,-0.358864016756415,0.363372293114662,-2.17751538813114,2.23660369119652
10.8656386666698,-0.00809020757675171,0.553603852987289,-2.33389332354069,2.39866644683433
10.8755676666769,0.25437244579196,0.633591424226761,-2.42975140750408,2.52385327154729
10.8854966666695,0.413192616999149,0.755735666155815,-1.67587749481201,1.88425845187436
10.8954256666766,0.649860351607204,1.43701171875,-0.409572825059295,1.62943887747989
10.9053546666692,1.07626277893782,2.10971633791924,-0.234926506876946,2.38000736541795
10.9152836666763,1.3162713932991,3.02099612653256,-0.435787135362625,3.32398832800144
10.9252126666688,1.01878114074469,3.96856139659882,-0.039228385090828,4.09743010160127
10.9351416666759,0.382615224011242,4.39530055046082,0.817220235094428,4.48697116674201
10.9450706666685,-0.259630408287048,4.08821881771088,1.6347054952383,4.41057854556009
10.9549996666756,-0.407804078869522,3.00482389748096,2.26178370594978,3.7829798247037
10.9649286666681,-0.414621676504612,1.34445848107338,1.83617774248123,2.31322900810558
10.9748576666752,-0.806892371177673,-0.521530705690384,1.75423880919814,2.00010584103431
10.9847866666678,-1.24823582321405,-2.0934926533699,1.92513845086098,3.10595592612838
10.9947156666749,-1.44086912691593,-2.97747939348221,1.35353467538953,3.57400944276767
11.0046446666674,-1.47586792856455,-3.21230649769306,1.32653501093388,3.77581703912144
11.0145736666746,-1.49348149627447,-2.81584071815014,1.8659364156425,3.69339473072231
11.0245026666671,-1.30595018059015,-1.77427151620388,2.78733437240124,3.55285493525492
11.0344316666742,-0.90546444028616,-0.371147335767746,3.40215681910515,3.54009706353567
11.0443606666668,-0.421373748779297,0.925264574289322,3.54669121921063,3.68953777227187
11.0542896666739,0.1162505591847,1.70845701098442,3.39856662869453,3.80560043627398
11.0642186666664,0.62530182659626,1.76470020890236,3.02264679551125,3.55549755337548
11.0741476666735,1.13724075973034,1.26264248549938,2.62103780508041,3.12368720704248
11.0840766666661,1.57306531727314,0.55986505150795,2.05859588563442,2.65062264169357
11.0940056666732,1.80083103150129,-0.244601894617081,1.34811474502087,2.26279381663707
11.1039346666657,1.74970619380474,-1.10475713789463,0.782380258440971,2.21225653285643
11.1138636666728,1.48456536948681,-1.76581351876259,0.389923183768988,2.33967344058199
11.1237926666654,1.1634780934453,-2.09835052013397,0.0392709235846996,2.39964547062953
11.1337216666725,0.854787791669369,-2.20149891257286,-0.231434111148119,2.37293518214245
11.1436506666651,0.65145759165287,-2.14033411324024,-0.402441049218178,2.273188489351
11.1535796666722,0.585998597145081,-1.9331871432066,-0.481997680664063,2.0767591701208
11.1635086666647,0.650103084146977,-1.58674429357052,-0.297748991847038,1.74041544906437
11.1734376666718,0.782760035097599,-1.19308517754078,-0.0251471203565598,1.42716428314183
11.1833666666644,0.851425642669201,-1.01571456849575,0.123887296915054,1.33114603706208
11.1932956666715,0.868583127558231,-0.999081578850746,0.198241075873375,1.33861875634595
11.203224666664,0.826316529214382,-1.01533391475678,0.210120279192925,1.32584029831512
11.2131536666711,0.720232469066978,-0.914075927138329,0.0580659212172031,1.16517863921328
11.2230826666782,0.501666544675827,-0.681501170396805,-0.131538378596306,0.856396819437662
11.2330116666708,0.183398503661156,-0.465778673887253,-0.295592538714409,0.581343042563466
11.2429406666779,-0.133389095440507,-0.391148906350136,-0.419784329384565,0.589074698928916
11.2528696666704,-0.40945968143642,-0.457137073874474,-0.547348647862673,0.82232723252342
11.2627986666776,-0.632532420381904,-0.592046372294426,-0.625224789530039,1.06842042624805
11.2727276666701,-0.88168871127069,-0.757504448890686,-0.549319671168923,1.28566717108453
11.2826566666772,-1.1393866147846,-0.829748552441597,-0.196156616583467,1.42308184461004
11.2925856666698,-1.37081743687391,-0.643788383603096,-0.185954760164022,1.5258384911017
11.3025146666769,-1.58311726570129,-0.406390843391418,-0.478043647259474,1.70292087991165
11.3124436666694,-1.69880968987942,-0.262993142008781,-0.744186172708869,1.87321456721405
11.3223726666765,-1.54976123929024,-0.241114030480385,-1.00955854676664,1.86523573144267
11.3323016666691,-1.22889060258865,-0.312525490522385,-1.64981645464897,2.08080240037046
11.3422306666762,-0.87980298422277,-0.339548397660255,-1.83038666009903,2.05904388755301
11.3521596666687,-0.552574085220695,-0.222295351624489,-1.69361677765846,1.79529694830064
11.3620886666758,-0.353836580738425,-0.00287156760692596,-1.84339963853359,1.87705375498811
11.3720176666684,-0.416904283314943,0.0525921964645386,-2.07030668914318,2.11252098396355
11.3819466666755,-0.749237289950252,-0.135029751062393,-2.39121240913868,2.50947929577886
11.3918756666681,-1.14814552456141,-0.340433081388474,-2.7822320920229,3.02901770254915
11.4018046666752,-1.38547669887543,-0.431804012060165,-3.20598448812962,3.51913866252606
11.4117336666677,-1.43147908329964,-0.29561826646328,-3.62433581113815,3.90798318794869
11.4216626666748,-1.38177482664585,0.0483389317989349,-3.54347992837429,3.80366774661919
11.4315916666674,-1.27653488516808,0.492313923239708,-2.67938717007637,3.00849296479759
11.4415206666745,-1.12374670162797,1.21164365530014,-2.42954953238368,2.93829847482426
11.451449666667,-1.11396606400609,1.90408379673958,-1.15763628646731,2.49130031680431
11.4613786666741,-1.22627002671361,2.40499312698841,0.590174605473876,2.76333787008103
11.4713086666743,-1.07519113048911,2.91745889425278,1.72372467577457,3.555113095896
11.4812376666669,-0.154962763041258,3.30781608760357,2.09496220484376,3.91848534092731
11.491166666674,1.1837689550221,3.36440134763718,2.32112051948905,4.25536200961212
11.5010946666735,2.23661363527179,2.94619269669056,2.91711449325085,4.71084375948201
11.5110246666736,2.86586627930403,2.20142055988312,3.71489514827728,5.1826526002639
11.5209536666662,3.1215322753787,1.29504716992378,4.30598374664784,5.47381100742014
11.5308826666733,3.17542752385139,0.304640520215035,4.52092154681683,5.53307124825467
11.5408116666658,3.09865358233452,-0.617674133777619,4.46959410309792,5.47361368798531
11.5507406666729,3.04595292001963,-1.11637730956078,4.31293082356453,5.39680458948916
11.5606696666655,2.95316667079926,-1.00415637731552,4.18032357394695,5.21580565191224
11.5705986666726,2.6391735291481,-0.400209751725197,3.3616315215826,4.29254833976622
11.5805276666651,1.99375669598579,0.341127145886421,2.53438265383244,3.24261143655782
11.5904566666723,1.19631006315351,0.829000108838081,1.85590434774756,2.35855462002562
11.6003856666648,0.458179924786091,1.0665181016922,0.765960692167282,1.390714020444
11.6103146666719,-0.0528832416236401,0.952298591136932,-0.0824230827391148,0.957320640378254
11.6202436666645,-0.288001537173986,0.626129207611084,-0.469648507386446,0.833997836045502
11.6301726666716,-0.308140371143818,0.27269893527031,-0.490609459877014,0.640322449822764
11.6401016666641,-0.143451057225466,-0.133063917160034,-0.129289685636759,0.234520861931574
11.6500306666712,0.117715414613485,-0.556875954866409,0.174510882049799,0.595333348553396
11.6599596666783,0.347508358508349,-0.940246894955635,0.431242533177137,1.09123618210171
11.6698886666709,0.484252659380436,-1.22648447334766,0.569222350716591,1.43623775400706
11.679817666678,0.578418851494789,-1.37330396533012,0.410791457891464,1.54573017400599
11.6897466666705,0.699555764347315,-1.3293814355135,-0.0106064106523991,1.50224690529434
11.6996756666777,0.843131221085787,-1.16280595600605,-0.675330749899149,1.58715455109202
11.7096046666702,0.883313725590706,-1.12617373466492,-1.25965046525002,1.90662783811384
11.7195336666773,0.807682914733887,-1.23737900555134,-1.53660383462906,2.13180905306478
11.7294626666699,0.67900864854455,-1.39785116136074,-1.51721285954118,2.17185991152123
11.739391666677,0.507857284247875,-1.50429913759232,-1.36846013188362,2.0960720524542
11.7493206666695,0.330526436269283,-1.47926077544689,-1.199252820611,1.9327874933867
11.7592496666766,0.234383008182049,-1.28051508486271,-1.08144019603729,1.69238505508959
11.7691786666692,0.232613494545221,-1.0455172419548,-1.04534021750093,1.49664675571566
11.7791076666763,0.307683995962143,-0.769709926843643,-1.10182329744101,1.37881738879253
11.7890366666688,0.448160866945982,-0.449415240883827,-1.19003417350352,1.34870439886086
11.7989656666759,0.614979882985354,-0.103081149458885,-1.18657262183726,1.34044043759661
11.8088946666685,0.760404375493527,0.0955832648277283,-1.07892494313419,1.32341603726944
11.8188243333425,0.810395291894674,0.0623722493648529,-0.962250625267625,1.2595860798071
11.828753333335,0.834746606200934,-0.11333599627018,-0.691366738826037,1.08978663607583
11.8386823333421,0.922955216467381,-0.346652179956436,-0.538505757451057,1.1233888535502
11.8486113333347,0.959576474279165,-0.569925186038017,-0.778815064877272,1.36093887921181
11.8585403333418,0.960655577927828,-0.634285488724709,-0.936399353966117,1.48392081012389
11.8684693333344,0.933544816374779,-0.472888888120651,-1.02076831698418,1.46188158947533
11.8783983333415,0.860848869234324,-0.223305750489235,-1.02385338105261,1.35617181055958
11.888327333334,0.755729965120554,-0.0398493593931198,-0.998616798296571,1.25297695967055
11.8982563333411,0.60911614894867,0.0500229299068451,-1.21836619913578,1.36306308424192
11.9081853333337,0.402555362284184,0.176777116656303,-1.64104446172714,1.69891962553924
11.9181143333408,0.180962553620338,0.468381854295731,-1.87096633672714,1.93717424110803
11.9280433333333,0.00912458002567291,0.958651006221771,-1.84018776297569,2.07494241189874
11.9379723333404,-0.0629227647185326,1.43921027183533,-1.94019283846021,2.41653341199505
11.947901333333,-0.108349198400974,1.57844767928123,-2.43396549582481,2.90300269718927
11.9578303333401,-0.242950494736433,1.4099168908596,-2.79740737080574,3.14203414689627
11.9677593333327,-0.403948607593775,1.11963654756546,-2.86980584084988,3.10685468607679
11.9776883333398,-0.50727826371789,0.92065930724144,-2.66457266449928,2.86441831464047
11.9876173333323,-0.426567976623774,1.09857078373432,-1.46658693552017,1.88140778275046
11.9975463333394,0.0400284303724766,1.87548564970493,-0.0810968611389399,1.87766487914479
12.007475333332,0.63712701626122,2.51084234833717,0.0612652983516455,2.59114136430944
12.0174043333391,1.03918222233653,2.90703681707382,-0.305333488360047,3.10225583828238
12.0273333333316,0.975575187206268,3.20340352714062,-0.656024267077446,3.41231723944067
12.0372623333387,0.474029826074839,3.14540616452694,-0.473691199198365,3.21600179851483
12.0471913333313,-0.0235455679893494,2.75214115083218,0.115433977246284,2.75466156015194
12.0571203333384,-0.123275166526437,2.14737883865833,0.60219136454165,2.23362196508905
12.0670493333309,-0.0793385303020477,1.42167447209358,0.313780303001404,1.45805040569409
12.076978333338,-0.249021439477801,0.514415813684464,0.675042262896895,0.884487062305157
12.0869073333452,-0.363273986801505,-0.321179369688034,1.26678231418133,1.35641498389043
12.0968363333377,-0.468341727778316,-1.00039252460003,1.54363920450211,1.89814413860747
12.1067653333448,-0.728620884642005,-1.66842229485512,2.099770077914,2.77912859141298
12.1166943333374,-1.18269781820476,-2.16802360296249,2.43421619519591,3.46763737393962
12.1266233333445,-1.63197426080704,-2.13292159795761,3.12919242024422,4.12365611246677
12.136552333337,-1.68239217013121,-1.38644382834435,3.88027896523476,4.45075664930315
12.1464813333441,-1.38254929035902,-0.325937249064446,3.81568945169449,4.07150630877229
12.1564103333367,-0.74987295538187,0.525894482731819,3.5348301422596,3.65156111694819
12.1663393333438,0.0968719911575317,1.01901239812374,3.03242158591747,3.20052357043953
12.1762683333363,0.994084840714932,1.24042365074158,2.35205652952194,2.83884226788406
12.1861973333434,1.81216439723969,1.19650112092495,1.73203298449516,2.77767762607128
12.196126333336,2.41547747701407,0.811870105862618,1.33296694815159,2.87584168472817
12.2060553333431,2.65456778615713,0.0895331507921219,1.05445646524429,2.85773069995922
12.2159843333357,2.57768274754286,-0.748122591376305,0.909510932788253,2.83396293122706
12.2259133333428,2.33558258414269,-1.416946413517,0.810642044395208,2.84953042978498
12.2358423333353,2.04063382387161,-1.85090453982353,0.661843343004584,2.83338501255084
12.2457713333424,1.81371157050133,-2.07483477294445,0.469074091538787,2.79544620755664
12.255700333335,1.67866807848215,-2.00250471532345,0.341694252714515,2.63528112635934
12.2656293333421,1.68450944691896,-1.79796618819237,0.161306553483009,2.46906344487921
12.2755583333346,1.65878783762455,-1.65834812700748,0.0446042420715094,2.34599342262742
12.2854873333417,1.59911729425192,-1.49221820533276,0.12363162741065,2.19070218706202
12.2954163333343,1.41615177690983,-1.29247322559357,0.142773218750954,1.92259124259776
12.3053453333414,1.15369160860777,-1.08764233767986,0.180600026249886,1.59580279231713
12.3152743333339,0.842490804791451,-0.94157362818718,0.225555759072304,1.28344343619281
12.3252033333411,0.559206947386265,-0.830112833976746,0.396345326900482,1.07651722944587
12.3351323333336,0.372833599671721,-0.639583650827408,0.523838163167238,0.906906037382217
12.3450613333407,0.182345347031951,-0.466714228391647,0.476209668070078,0.691265249040357
12.3549903333333,-0.0200438898056746,-0.382567532658577,0.264284061044455,0.465409217232708
12.3649193333404,-0.215793247818947,-0.402736333608627,0.166362056136131,0.486250567027546
12.3748483333329,-0.350707516372204,-0.464795172214508,0.0229479825496674,0.582715131137826
12.38477733334,-0.42021833896637,-0.502163558006287,-0.185521627664566,0.680565915782225
12.3947063333326,-0.506722266599536,-0.519174862504006,-0.055696629434824,0.727607110915104
12.4046353333397,-0.591670688688755,-0.395722013711929,-0.0388646882772446,0.712867855906365
12.4145643333322,-0.642208246663213,-0.0974567127227783,-0.255122058838606,0.697865680373392
12.4244933333393,-0.637936855629087,0.17566556096077,-0.185632578581572,0.687227237024575
12.4344223333319,-0.535473318323493,0.280079875588417,-0.351773244515061,0.699228737183083
12.444351333339,-0.356658812463284,0.159926610589027,-0.711732444763184,0.812000678700943
12.4542803333316,-0.159058810696006,-0.163237888813019,-0.991342277303338,1.01720490776103
12.4642093333387,0.0342018992453814,-0.58757442176342,-1.30612296581268,1.43260974199044
12.4741383333312,0.137787882685661,-1.02145127177238,-1.82822786808014,2.09875328203323
12.4840673333383,0.00939888752996922,-1.37036223113537,-2.03315289616585,2.45187513605336
12.4939963333309,-0.408541960939765,-1.50535397529602,-1.81496345937252,2.39313382067228
12.503925333338,-0.966572667807341,-1.2307927018404,-1.64364194110036,2.2695092481856
12.5138543333451,-1.42421567201614,-0.585145488381386,-1.6246897995472,2.23839283141771
12.5237833333376,-1.67827485322952,0.164317284822464,-1.65494680166245,2.36272206774448
12.5337123333447,-1.67935293361545,0.742917984724045,-1.58093289211392,2.42311828374864
12.5436413333373,-1.36040968537331,1.00884350538254,-1.6104290252924,2.33708394712604
12.5535703333444,-0.832829158008099,0.930028300881386,-1.78171853005886,2.17556382743047
12.563499333337,-0.328704443871975,0.726435268521309,-1.74157797932625,1.91542388751078
12.5734283333441,-0.082592505812645,0.657759135961533,-1.53462864518166,1.67169186202762
12.5833573333366,-0.107036790847778,0.971806656718254,-1.4549655944109,1.75293751558815
12.5932863333437,-0.382277656942606,1.52321488022804,-1.10865913107991,1.92235398594341
12.6032153333363,-0.742397801801562,1.90649928152561,-0.398132382184267,2.08432324756051
12.6131443333434,-0.826419294029474,2.05335444152355,0.48023986145854,2.26492022742577
12.6230733333359,-0.386916984021664,2.1212470471859,1.17680477499962,2.45647374628373
12.633002333343,0.429707200527191,1.942040412426,1.53717452287674,2.51377699000169
12.6429313333356,1.25794205501676,1.42419754564762,1.95026320561767,2.72291818349259
12.6528603333427,1.99143754407763,0.698718296885491,2.73142154216766,3.45176685066968
12.6627893333352,2.7243914347887,0.000146765112876892,3.08431270122528,4.11525133502556
12.6727183333423,3.40415364325047,-0.610010772943497,2.93624921411276,4.53673171097216
12.6826483333425,3.95309258759022,-1.20282371520996,2.82367306351662,5.00468335317646
12.6925773333351,4.3059708827734,-1.685175152421,2.689293230474,5.34915868311109
12.7025063333422,4.50681046128273,-1.75196848154068,2.3969189992547,5.39684674446362
12.7124353333347,4.4543729236722,-1.33822944223881,1.91433045744896,5.02960806460459
12.7223643333418,4.04345048815012,-0.695906955599785,1.16823918879032,4.26597716158902
12.7322933333344,3.30996786296368,0.0520308637619019,0.578381136953831,3.36052365029918
12.7422223333415,2.32806642696261,0.817976353168488,0.430627844631672,2.50487902767088
12.752151333334,1.2904435108602,1.55659371078014,0.149745877236128,2.02747435567277
12.7620803333411,0.400310908555985,2.22011410832405,0.16952481508255,2.26227631831684
12.7720093333337,-0.25693352624774,2.59963465690613,0.325540076941252,2.63250670046487
12.7819383333408,-0.634258591532707,2.43628800988197,0.46615055680275,2.56028896213596
12.7918673333334,-0.707176001966,1.74523015022278,0.683644759654999,2.00332132530131
12.8017963333405,-0.512269446998835,0.882794492840767,0.881416596472263,1.34857010179494
12.8117221666762,-0.245506312698126,0.103574069738388,0.839348803460598,0.880628952151552
12.8216511666687,-0.0195542585849762,-0.475573929548264,0.399798692464829,0.62160431625864
12.8315801666758,0.159740084409714,-0.789025619029999,-0.182196900844574,0.825393259440773
12.8415091666684,0.271071947515011,-0.914865885972977,-0.734524891376495,1.20415381330557
12.8514381666755,0.354865909963846,-0.929594437479973,-1.21991176441312,1.57424913695441
12.8613671666681,0.452858958542347,-0.957719544768333,-1.54009725362062,1.86927994515886
12.8712961666752,0.554787329435349,-1.09392283201218,-1.7108415055275,2.10509733749657
12.8812251666677,0.693032025843859,-1.28379537284374,-1.70539204671979,2.24427849902711
12.8911541666748,0.731570731848478,-1.49379636883736,-1.68981053262949,2.37109320007345
12.9010831666674,0.656331392079592,-1.6270637691021,-1.70701654940844,2.4478588408869
12.9110121666745,0.491807262003422,-1.54154824018478,-1.72439535140991,2.36469547463098
12.920941166667,0.264833553135395,-1.2508580070734,-1.66837668657303,2.10196653946402
12.9308701666741,0.036475954502821,-0.937204003930092,-1.58338170602918,1.8403204794892
12.9407991666667,-0.13998102709651,-0.650711486935616,-1.57212698534131,1.70722095383559
12.9507281666738,-0.272026213109493,-0.484869832992554,-1.63291800141335,1.72496904752076
12.9606571666664,-0.307052204310894,-0.361959021091461,-1.60564717233181,1.67433516093368
12.9705861666735,-0.154261243343353,-0.169949322938919,-1.47819015026093,1.49590287916484
12.980515166666,0.230710079669952,0.0505597043037415,-1.31110128521919,1.33220494093965
12.9904441666731,0.677787019014359,0.0784468299150467,-1.15166057825089,1.33860794699765
13.0003731666657,1.16656776219606,-0.00936197698116303,-1.03607983589172,1.56026581605493
13.0103021666728,1.57577360138297,-0.219277018904686,-0.856354114562273,1.80678920280229
13.0202311666653,1.79029829576612,-0.469677012562752,-0.582186504900456,1.94028493022059
13.0301601666724,1.72817689195275,-0.686301149725914,-0.354700433760881,1.89299155721962
13.040089166665,1.39631597489119,-0.748295668959618,-0.285339738428593,1.60967806602642
13.0500181666721,0.901739033013582,-0.670135352611542,-0.185910028964281,1.1387612626664
13.0599471666646,0.455213486105204,-0.489850491285324,0.101505032479763,0.676369790398155
13.0698761666717,0.147643364667892,-0.213308765888214,0.458141040802002,0.52649065139122
13.0798051666643,-0.040677325129509,0.121303997039795,0.674841776490212,0.686862961422427
13.0897341666714,-0.170547200739384,0.478953620195389,0.756761852502823,0.911686031143295
13.0996631666785,-0.196485157012939,1.02264527320862,0.790975080728531,1.30768931710702
13.1095921666711,-0.21340641438961,1.74392095863819,0.389243298768997,1.79953131490306
13.1195211666782,-0.328108466416597,2.57142301082611,0.0595372268557549,2.59295509944194
13.1294501666707,-0.399089863747358,3.501012185812,0.589756895005703,3.57269817361567
13.1393791666778,-0.159886410981417,4.50622983276844,1.53766188830137,4.7640397828821
13.1493081666704,0.667225778102875,5.53351194798946,1.93672821700573,5.90049666587935
13.1592371666775,1.91100865423679,5.94955128192902,1.66489642381668,6.46691538795032
13.16916616667,3.00411696910858,5.23498586118221,1.16383038818836,6.14689327248607
13.1790951666771,3.46523482739925,3.23550532579422,1.3261391544342,4.92290485173002
13.1890241666697,3.3699009463191,0.644207628965378,1.76454876601696,3.85809126445598
13.1989531666768,2.8994626262784,-1.72131445348263,1.63088477835059,3.74560971394633
13.2088821666694,2.09715827286243,-3.40647031009197,1.15495943114162,4.16365753665649
13.2188111666765,1.16843331634998,-4.33644423186779,1.00711214482784,4.60263618626497
13.228740166669,0.477128996551037,-4.63474110782147,1.02124661922455,4.76984505756293
13.2386691666761,0.323884437829256,-4.29386071443558,1.16811025768518,4.46168382319395
13.2485981666687,0.711317146271467,-3.32482739210129,1.32449813336134,3.64893745837395
13.2585271666758,1.48815658316016,-1.80247731506825,1.36953104943037,2.70908652181735
13.2684561666683,2.41423465132713,0.0405100947618485,1.21654406055808,2.70372880865027
13.2783851666754,3.14177913665772,1.76754955708981,1.16549655228853,3.78858678054265
13.288314166668,3.54429970800877,2.93989583015442,1.49902611851692,4.84273963953734
13.2982431666751,3.656981985569,3.28897460460663,2.09049829423428,5.34425432691222
13.3081721666676,3.5396453243494,2.82708959162235,2.6534764033556,5.24999634327616
13.3181011666748,3.20889523208141,1.83937850832939,3.10213735342026,4.82737797016808
13.3280301666673,2.65087146878243,0.711376934051514,3.28127411395311,4.27784250495551
13.3379591666744,2.01824059590697,-0.322661054134369,3.03852754086256,3.66197417732598
13.347888166667,1.39875864923,-1.26411890745163,2.58174802422524,3.19686490668019
13.3578171666741,0.850095766559243,-1.9258968347311,1.97909991905093,2.88939057933271
13.3677461666666,0.482811613082886,-2.02392891347408,1.28285455584526,2.44440404024724
13.3776751666737,0.373700303211808,-1.59004680097103,0.606225724071264,1.74224291487282
13.3876041666663,0.444286648035049,-0.972612403035164,0.174828239679337,1.08348069920485
13.3975341666664,0.537249190807343,-0.496470124125481,0.317336579561234,0.797384337631445
13.4074631666736,0.5666160274297,-0.212712934613228,0.730224118083716,0.948434382402455
13.4173921666661,0.470155972614884,-0.0836578685045242,1.32420533403754,1.40768073235434
13.4273211666732,0.29335027769208,-0.0415795505046845,1.93498253077269,1.95753432634977
13.4372501666658,0.0808479890227318,-0.0823059922456741,2.73833412051201,2.74076347561201
13.4471791666729,-0.170472794920206,-0.218598157167435,3.37833058476448,3.38968489215149
13.4571081666654,-0.424874038249254,-0.353691058158875,3.51595883846283,3.55915465620204
13.4670371666725,-0.635161840170622,-0.496715707182884,3.34064294099808,3.43657566717385
13.4769661666651,-0.778934786617756,-0.783729211091995,2.93246928155422,3.13374328326065
13.4868951666722,-0.846097440496087,-1.20628702104092,2.46796559303999,2.8743457384899
13.4968241666647,-0.740132736638188,-1.68530729949474,1.94251842230558,2.67608575770104
13.5067531666718,-0.48174332678318,-2.09199459671974,1.4437518042326,2.5870711814385
13.5166821666644,-0.1971689157933,-2.34781028151512,1.12446093901992,2.61065147094069
13.5266111666715,0.0213842909038067,-2.33471836566925,1.07354031533003,2.56979686814535
13.5365401666641,0.134946720600128,-1.98388776540756,1.18204475730658,2.31327713242718
13.5464691666712,0.158406699970365,-1.43401034295559,1.26626425087452,1.91961024672768
13.5563981666783,0.126298725195229,-0.904666587710381,1.29134529769421,1.58175398870445
