Time (s),Linear Acceleration x (m/s^2),Linear Acceleration y (m/s^2),Linear Acceleration z (m/s^2),Absolute acceleration (m/s^2)
0.0036813750048168,-0.139975033700466,-0.506884307563305,-0.199314624667168,0.562362010558672
0.0136123750125989,0.119228820204735,-0.760107629299164,-0.515671795606613,0.926227035056933
0.0235423750127666,-0.0840940707921982,-0.587024491131306,-0.133674951195717,0.60789683212495
0.0334723750129342,-0.658730504661799,-0.438776232004166,0.875766724348068,1.18043119876556
0.0434023750131018,-0.272546615302563,-0.395279087126255,0.914754204154015,1.03310331925209
0.0533323750132695,-0.392806738168001,-0.759742470681667,0.22241697371006,0.883727936359381
0.0632623750134371,-0.433740025162697,-1.16129503548145,-0.0818990260362625,1.24235422457836
0.0731923750136048,0.038061865568161,-1.87634899109602,0.574921631813049,1.96282172515085
0.0831223750137724,0.242035551667213,-1.72297447800636,0.704837992787361,1.87723702717815
0.09305237501394,0.222809175699949,-1.04278396099806,1.00601813077927,1.46598594725444
0.102982375014108,-0.0567453275620937,-1.12777148634195,0.912065069675446,1.45153410188261
0.112912375014275,0.0439586363732815,-1.54870727866888,0.64995076417923,1.68013767071956
0.122842374999891,0.0772143830358982,-1.91336771339178,0.240446278452873,1.92996178211371
0.132772375000059,0.0857607465237379,-1.78825308591127,-0.41840511739254,1.83855020251713
0.142702375000226,0.133713323548436,-1.34502449154854,-0.815803527832031,1.57876709231696
0.152632375000394,0.0893943707831204,-0.921396348774433,-1.04299767673016,1.39456327885366
0.162562375000562,0.100618302226067,-0.46383359760046,-1.00705074906349,1.113291004273
0.172492375000729,0.32879522189498,0.474419104456902,-0.242265931963921,0.625997257505977
0.182422375000897,0.523466536067426,1.79206283926964,0.514460837244988,1.93653721558157
0.192352375001065,0.606342814564705,2.279951004982,-1.42701882719994,2.75721071502991
0.202283375008847,0.290057911556214,1.38832487761974,-3.66670999825001,3.93145542631998
0.212213375009014,0.86373995192349,-0.488847693800926,0.0478413337469101,0.993633516694138
0.222143375009182,1.16199874788523,-2.3833262693882,1.54678793013096,3.06969674353046
0.23207337500935,0.555257993750274,-2.23438219159842,0.380952531695366,2.33364522778438
0.242003375009517,0.0250230132043362,-0.983287957012653,-0.887779244184494,1.32500314867578
0.251933375009685,0.848515483438969,0.325545193254948,-1.31637021124363,1.5996214338201
0.261863375009852,1.84751300856471,0.956876814812422,-1.28885964632034,2.44746332831656
0.27179337501002,1.36185979485512,1.60166975006461,-1.06154913783073,2.35518463419411
0.281723375010188,0.378099163547158,1.07452995657921,-0.817286381721497,1.4019738352796
0.291653375010355,0.440461107194424,0.681497077345848,-1.30848524093628,1.53966810681067
0.301583375010523,0.727327992171049,0.861902391314507,-0.755364367961884,1.35737138202324
0.311513375010691,0.946958475261927,0.307408007383347,0.564498969912529,1.14450387675451
0.321443375010858,0.928675401359797,0.743185202479363,1.44300920784473,1.87003684995771
0.331373375011026,0.959807366207242,0.459365740120411,1.05063004732132,1.49534964465053
0.341299375009839,0.829351965039969,0.163662981390953,0.855404965281487,1.20263373810219
0.351229375010007,0.213361975550652,0.700475385189056,0.452825337052345,0.860952892871151
0.361159375010175,-0.184008569251746,0.793852203190327,-0.401523036360741,0.908449901093373
0.371089375010342,-0.685802820771933,0.913944364786148,-1.0020385158062,1.51977004775794
0.381020375003573,-0.937908008694649,0.728690247237682,-1.42061320245266,1.85170267056449
0.39095037500374,-1.16679660759866,0.493919276297093,-2.04701547503471,2.40741415839344
0.400880375003908,-1.3989992621541,0.341887283921242,-2.21691860496998,2.6436365013891
0.410810375004075,-1.35272147387266,0.098757718205452,-2.04839834153652,2.45673446639863
0.420740375004243,-1.10570212103426,-0.0735492020845413,-1.4606069880724,1.83340105792291
0.430670375004411,-0.64176042303443,-0.0082419428229332,-0.506566511392594,0.817639285173657
0.440600375004578,-0.335983715727925,-0.180720478892326,0.375311138033867,0.535166702119715
0.450530375004746,-0.205806642025709,-0.574716979265213,0.940100129842758,1.12091223308875
0.460460375004914,-0.222713354453444,-1.04306141138077,1.37859452605248,1.74301497796932
0.470390375005081,-0.49414914496243,-1.721765858531,2.05784978091717,2.72826075914509
0.480320375005249,-0.822903363257647,-2.23044613838196,2.3441008079052,3.33869263621339
0.490250375005417,-1.0478879224509,-2.49976713716984,2.38589904427528,3.61101358174772
0.500180375005584,-1.26183513119817,-2.41779443621635,2.13775022864342,3.46524658201832
0.510110375005752,-1.24914755031467,-2.18948405385017,1.81953539729118,3.10884529793892
0.52004037500592,-1.0671994484961,-1.98127464473248,1.61785908222199,2.77161178570491
0.529970375006087,-0.968245994746685,-1.40363639652729,1.21548410654068,2.09406233270457
0.539900375006255,-1.21317167893052,-0.652349292039871,0.625750308036804,1.51291393324015
0.549830375006422,-1.55125301018357,-0.42630119740963,0.0627663516998291,1.60998702709748
0.559761375014205,-1.935162332654,-0.440929761528969,-0.00776217877864838,1.98477519123559
0.56969137499982,-2.29770022809505,-0.434755101799965,0.175046925544739,2.34501167648944
0.579621374999988,-2.49685697793961,-0.528036902546883,0.717127670645714,2.65092244977909
0.589551375000156,-2.46049022018909,-0.616287758946419,1.13759276211262,2.77991726817263
0.599481375000323,-2.06324179083109,-0.56089708507061,1.27808965981007,2.49100088438081
0.609411375000491,-1.37917895525694,-0.397801868319511,1.15586180269718,1.84293174697179
0.619341375000658,-0.76765499599278,-0.19790836930275,1.18015406012535,1.42169811181668
0.629271375000826,-0.353295128569007,-0.0852518194913864,1.07912235975266,1.13867922959687
0.639201375000994,0.123417765498161,-0.226025290489197,0.910043102502823,0.945778951549594
0.649131375001161,0.54822375677526,-0.264621591567993,0.207492540478706,0.643138421003648
0.659061375001329,0.932915363609791,-0.574510572552681,-0.581404439806938,1.24033245392565
0.668991375001497,1.17193857595325,-0.898784873485565,-0.804409058690071,1.68176342221979
0.678921375001664,1.08723376348615,-1.19880433917046,-0.642667472362518,1.74133011807382
0.688851375001832,1.29153737872839,-0.886898068785668,-0.178734764456749,1.57689666785549
0.698781375002,1.03111949667335,-1.26817102789879,-0.00867142081260681,1.63448474020429
0.708712375009782,0.709159377515316,-1.68512837469578,0.53326022028923,1.90445034707279
0.718642375009949,0.26133523710072,-1.49557918488979,0.836084010601044,1.73323099360958
0.728572375010117,-0.0241737234033644,-1.56633926510811,0.720940639972687,1.72445889156188
0.738502375010285,-0.10557494125329,-1.65845454633236,0.415292644500732,1.71291725750181
0.748432375010452,-0.0437443450558931,-1.37561420023441,0.168629021644592,1.38660150820333
0.75836237501062,-0.102841148665175,-0.93839625120163,-0.0113740038871765,0.944083255911506
0.768292375010788,-0.214098066911101,-0.808220858573914,-0.198345741033554,0.859302025759962
0.778222375010955,-0.30916480332613,-0.671088448762894,-0.473737319111824,0.877707029251749
0.788152375011123,-0.159204771816731,-0.891771138310433,-0.853657232522965,1.24472189389095
0.79808237501129,-0.0923866103030741,-1.39709862470627,-0.97608915746212,1.70680107107845
0.808012375011458,-0.174323186427355,-1.32927150785923,0.207949792742729,1.3566850891914
0.817942375011626,-0.438946970701218,-1.03147924661636,0.940582525134087,1.46332476432118
0.827872375011793,-0.557389194220305,-1.20055207192898,0.625323461294174,1.46391168534562
0.837802375011961,-0.11320728443563,-1.39216883718967,0.0367643684148788,1.39724785892707
0.847733375005191,0.635048696547747,-1.19324422180653,-0.524460160732269,1.44988864401959
0.857663375005359,1.57439131960273,-1.19664554715157,-0.53393557369709,2.04835441015888
0.867593375005527,2.08197860866785,-1.04751055777073,-1.19062934696674,2.61715714802343
0.877523375005694,1.88919020757079,-0.913459630608559,-2.18801932632923,3.03164587468971
0.887453375005862,1.28223007321358,-0.862329822778702,-3.73823314011097,4.04501096336348
0.897383375006029,0.7191132389009,-0.716219013333321,-3.82449448138475,3.95687396356835
0.907313375006197,-0.197998124063015,-0.969392341375351,-2.44723165869713,2.63967186596728
0.917243375006365,-0.562974600791931,-1.07899898350239,-0.775294017791748,1.4430038189692
0.927173375006532,-0.0627748301625252,-0.581923672556877,-0.467359468638897,0.74899980835141
0.9371033750067,0.265237741917372,-1.41195698440075,-1.69310982406139,2.22049419316257
0.947033375006868,0.522805946879089,-1.04439574599266,-3.17746264725924,3.38531496423411
0.956963375007035,0.604276847094297,0.0511567050218582,-3.91009391784668,3.95684242329468
0.966894375000265,0.217774686478078,0.819940432906151,-4.87187932401896,4.94519324954934
0.976824375000433,0.208102185800672,0.588607624769211,-4.73712906986475,4.77809138466701
0.986754375000601,0.195667058452964,0.540115495920181,-3.28902167469263,3.33881325073665
0.996684375000768,0.0529647371917963,1.89067203819752,-0.856052544414997,2.07611945181561
1.00661437500094,-0.0901788295805454,4.93548913657665,1.73989047288895,5.23396638279426
1.0165443750011,-1.20772887133062,6.98447863161564,1.74734172597528,7.30032560160677
1.02647437500127,-2.7857298964262,8.46301844537258,-1.28013603910804,9.00120661584782
1.03640437500144,-3.74002414226532,5.80805567979813,-0.0531260472536087,6.90826416267209
1.04633437500161,-1.88612246587873,1.43960846722126,-1.5324844712019,2.82461309733962
1.05626437500177,0.594905002936721,-1.84178112924099,-3.15006990373135,3.69716243745678
1.06619437500194,1.95193711727858,-3.43929365515709,-3.01495712220669,4.97280261069736
1.07612437500211,2.53187361359596,-4.54828183829784,0.0694941580295563,5.20596591554475
1.08605537500989,2.366265848279,-5.15115082204342,3.16224731504917,6.49102279596258
1.09598537501006,2.76432616353035,-4.35687264919281,3.50375979244709,6.23700016857717
1.10591537501023,3.59128500938416,-1.06596612453461,2.48577650427818,4.49585327012617
1.11584537501039,4.45067397505045,2.85879787266254,-0.134176057577133,5.29142961054555
1.12577537501056,3.79127498745918,5.445808390975,0.979926685094833,6.70752199921165
1.13570537501073,1.88363549888134,5.20167602777481,4.19944806218147,6.94556550739627
1.1456353750109,0.595270819365978,2.44879169583321,5.03675414085388,5.63203519106362
1.15556537501107,0.30473582983017,1.39238284528255,4.66608627676964,4.87892970394915
1.16549537501123,0.90454949721694,0.0535224884748459,2.95933665275574,3.09495522972974
1.1754253750114,1.17597841724753,-1.88382144033909,2.35303359925747,3.2355023684349
1.18535537501157,0.919424082934856,-2.90969671547413,1.35618039429188,3.33929646515298
1.1952863750048,0.241718194037676,-2.73795989871025,-15.0096365189552,15.2592280448071
1.20521637500497,0.622161579430103,-4.74377121448517,-12.734683713913,13.6037722584472
1.21514637500513,-1.5882470279932,-1.94358466207981,-0.333177856206894,2.53200660434916
1.2250763750053,-1.96294537782669,-0.941408151984215,-2.59842457562685,3.3898693396907
1.23500637500547,-3.03461078345776,-2.93781597554684,0.0742472865432501,4.22435059776238
1.24493637500564,-4.43718357145786,-5.38106977343559,0.977746185287833,7.04276206869454
1.2548663750058,-2.53051208943129,-5.71023234665394,-0.130351393818855,6.2471782729006
1.26479637500597,-1.13346345841885,-5.32880092799664,-0.319088843911886,5.45735067886403
1.27472637500614,-0.933432696014643,-5.25977279305458,-0.984613228440285,5.43193976790667
1.28465637500631,-0.27456799775362,-4.6786735779047,-1.69045167982578,4.98226865150805
1.29458637500647,0.444935688972473,-3.88278975963593,-2.16326806247234,4.46696236775819
1.30451637500664,0.166055515855551,-1.81530961453915,-2.39689414858818,3.0113161558562
1.31444737499987,-0.0914315955340862,1.11964531838894,-2.25870923995972,2.52264401101931
1.32437737500004,-0.218683380335569,3.61769688248634,-1.35974193334579,3.870975494586
1.33430737500021,0.00334489971399307,6.62283769905567,-0.596435877084732,6.64964105285849
1.34424145834055,1.43172978267074,10.2867047810555,-2.16209861934185,10.6085256215431
1.35417145834072,3.32770509928465,11.9863570547104,-2.55698331177235,12.6997850504445
1.36410145834088,3.12453979074955,12.3225672769547,-0.503641149401665,12.7225024113349
1.37403145834105,1.73237840875983,12.9785032510757,-1.02534200906754,13.1336974163744
1.38396145834122,1.65047485113144,12.4938275456429,-2.40494050204754,12.829790832
1.39389145834139,1.27736913666129,10.3911664581299,-1.53872403502464,10.5818563554709
1.40382145834155,0.416861891001463,9.93343940019608,-1.79021511912346,10.1020721798191
1.41375145834172,-0.00159351244568825,9.99059944152832,-1.44677773833275,10.0948128048262
1.42368245833495,0.512840719968081,10.5168161058426,-0.324527485370636,10.5343127301656
1.43361245833512,0.476699957102537,10.5912324500084,0.452783821821213,10.6116191435857
1.44354245833529,-0.501544484049082,10.0994652414322,0.511935424804688,10.124861624316
1.45347245833545,-0.662915941625834,10.5256173348427,0.351339308023453,10.5523228312332
1.46340245833562,-0.543465365767479,9.32900336265564,2.41377330601215,9.65152629986811
1.47333245833579,-0.758587207049131,7.16684334754944,3.19663303613663,7.88400665187012
1.48326245833596,-0.710995841771364,5.10705229103565,1.42144993901253,5.34864638198371
1.49319245833613,-0.260449018478394,4.06873647987843,0.734183413982391,4.14264112846946
1.50312245833629,-0.0956189328432083,3.09316889405251,1.13211216688156,3.29522605383202
1.51305245833646,-0.352676273882389,1.40689154148102,0.984286369085312,1.75286737091474
1.52298245833663,-0.00525810867547989,-0.819660935997963,-0.240736885070801,0.854298510792037
1.5329124583368,0.98450680911541,-3.27086168467999,-0.224188095331192,3.42316375880419
1.54284345834458,1.69443173334003,-5.06084583878517,-0.00406498546362855,5.33697255258126
1.55277345834475,2.06642472267151,-6.8532267665863,0.219934245944023,7.16136853689726
1.56270345834491,1.6311420558393,-9.38417301177979,-0.222118180990219,9.52746891927075
1.57263345834508,0.961828163936734,-11.1811486816406,0.0345541117619723,11.2224949652266
1.58256345834525,0.88656623929739,-12.3768773853779,-1.04302165031433,12.4523486809664
1.59249345834542,0.854676694571972,-13.8060760545731,-1.24601125001907,13.8885115225525
1.60242345834558,0.17239345908165,-14.5298923552036,-0.766485772132874,14.5511165137738
1.61235345834575,-0.938666538745165,-14.0221797895432,-0.738598061800003,14.0729580408003
1.62228345834592,-1.94157205045223,-12.4547973811626,-0.599503911137581,12.6194724442974
1.63221345834609,-2.74202751427889,-10.4894721865654,-0.343811017870903,10.8473935882221
1.64214345834625,-3.42151227235794,-9.03600347936153,-0.269487077984959,9.66585373333006
1.65207445833948,-3.51883157551289,-8.15317741155625,0.0894179606437683,8.88056716278995
1.66200445833965,-3.50582093596458,-7.04546333670616,0.111271929144859,7.87030593472286
1.67193445833982,-3.1485934817791,-6.56623080432415,0.0614220768213272,7.28236229259972
1.68186445833999,-2.39999478086829,-6.87316226363182,0.342708817720413,7.2881948234217
1.69179445834016,-1.45075881510973,-7.33424094557762,0.513895411491394,7.49398958375029
1.70172445834032,-0.740318020284176,-7.88416397631168,0.343162598200142,7.92627736994687
1.71165445834049,-0.363388957679272,-8.37581424057484,0.204660733938217,8.3861911344302
1.72158445834066,0.225499333441258,-9.00097339510918,0.254524071402848,9.0073944352276
1.73151445834083,1.53874303847551,-9.80787921488285,0.693260505795479,9.95202667606371
1.74144445834099,4.86311931788921,-11.3817947173119,3.87883645713329,12.9707576011674
1.75137445834116,3.67723469406366,-10.4489720320702,-2.36421698391438,11.3266320444005
1.76130445834133,2.34074450612068,-8.49915599226952,-4.95012062430382,10.110313131601
1.77123545833456,1.19257193818688,-4.65738912820816,-0.0367509198188782,4.80779075557682
1.78116545833473,0.061879767626524,-0.470362306237221,3.98677898168564,4.01490678018565
1.79109545833489,0.109741420447826,4.22518282771111,2.8903032553196,5.12035799672814
1.80102545833506,-0.150239528417587,9.53739871323109,1.25384418010712,9.6206377833816
1.81095545833523,-0.537615957409144,15.2658065450192,1.15397841453552,15.3187971645565
1.8208854583354,0.31123442530632,20.3887919139862,0.564867892675102,20.3989896395753
1.83081545833556,0.433843228518963,24.2398219370842,0.710545459985733,24.2541143383795
1.84074545833573,-0.0163051070272923,28.0224582481384,-1.33644896507263,28.0543138921881
1.8506754583359,0.72277213409543,29.5396025490761,-3.07437243461609,29.7079498481793
1.86060545833607,1.62325430810452,27.4651624631882,-4.54698668003082,27.8862903869711
1.87053545833624,1.92795637026429,22.7576533412933,-4.53071855664253,23.2842266783251
1.8804654583364,2.47267113983631,18.5709182953835,-2.76099091172218,18.9371639828724
1.89039645834418,3.54988438367844,15.0639548134804,-1.81574757099152,15.5827261094336
1.90032645834435,3.9481867736578,11.4869627380371,-1.07933746419847,12.1944028597698
1.91025645834452,3.46693461298943,7.80762275397778,0.162495328970253,8.54429712797447
1.92018645834469,2.34402289375663,4.68448629498482,1.65357387542725,5.49301026176461
1.93011645834486,1.24964061677456,2.68015783309937,3.00371701955795,4.21511134075942
1.94004645834502,0.447459785789251,0.314073833227158,3.92836061954498,3.96621731500033
1.94997645834519,-0.0548612084984779,-2.19593177855015,4.48204165577889,4.99137491402734
1.95990645834536,-0.097699518352747,-4.34427073001862,3.38245638012886,5.5066545683434
1.96983645834553,0.173760538101196,-6.3414211499691,1.52422995686531,6.52434608886456
1.97976645834569,0.456792453601956,-8.72536897838116,0.56382950026542,8.75549124035502
1.98969645834586,0.492005117163062,-10.3624917125702,-0.0720715375989676,10.3744155418478
1.99962645834603,-0.144563197642565,-11.4622477269173,-0.0970778131484986,11.4635703676097
2.00955745833926,-0.480917846113443,-13.4471154856682,-0.17132692694664,13.4568031038395
2.01948745833943,-1.06671515285969,-14.2120587623119,0.458946787118912,14.2594224158679
2.02941745833959,-1.43966094598174,-12.3998429095745,0.367875306978822,12.4885571649809
2.03934745833976,-2.08052996098995,-9.8320171058178,-0.0699642010778189,10.0499781232151
2.04927745833993,-3.14851132839918,-8.7254052311182,0.989995517358184,9.32876793347718
2.0592074583401,-3.59760760366917,-10.5133487069607,1.6694186604023,11.23655819937
2.06913745834027,-3.41920905411243,-12.4919248616695,1.21377781592309,13.0081679683093
2.07906745834043,-2.9697955673933,-11.9179107177258,0.195803371667862,12.2839171500034
2.0889974583406,-2.12855168133974,-11.213843972683,-0.361583483666182,11.4197973501929
2.09892745834077,-0.267444042563438,-9.11615184903145,-0.524544360637665,9.13514628436671
2.10885745834094,0.950845996588469,-6.71898931324482,-0.736666068658233,6.82580415756552
2.1187874583411,1.33340987473726,-5.13151177883148,-0.949924548491836,5.38634864060622
2.12871845833433,1.10401249498129,-4.5255320763588,-0.364180963039398,4.67246315523916
2.1386484583345,0.916566037014127,-5.11991207242012,-0.463563821688294,5.2219234335922
2.14857845833467,0.56377077229321,-6.9608067637682,-0.617799337282777,7.01087329134967
2.15850845833484,0.168945502191782,-7.72429759204388,-0.677275972366333,7.75577324422977
2.168438458335,0.206410074681044,-7.58298910081387,-0.568768022060394,7.60709050063888
2.17836845833517,0.509833643138409,-8.61419703662395,0.0418906223773956,8.62937284822599
2.18829845833534,1.34803376108408,-8.78356397688389,0.193984887599945,8.88852188463594
2.19822845833551,0.493737427890301,-8.45749575018883,0.105779639482498,8.4725557150302
2.20815845833567,1.65981899410486,-11.1898329663277,-0.488282194957137,11.3227991419709
2.21808845833584,2.73172530502081,-7.37875579833984,1.8361311109364,8.07958772030934
2.22801845833601,1.55799134150147,-2.34747055828571,2.07643033191562,3.4999311372527
2.23794845833618,-0.274014832880348,3.21069675922394,1.24664377257228,3.45510904372392
2.24787945834396,-1.61299653768539,11.1727520799637,3.07064191102982,11.698760131599
2.25780945834413,-1.36694146379828,19.5931940245628,3.50481404542923,19.951077728851
2.26773945834429,-0.321628728210926,25.5755762529373,1.20779501795769,25.6060991662929
2.27766945834446,0.64393704906106,29.0958199310303,-0.793530387058854,29.1137610565395
2.28759945834463,0.498851877786219,28.4885842466354,-2.79459135174751,28.6296703857533
2.2975294583448,0.0488800550624728,24.5785862231255,-5.76391972661018,25.2454364312087
2.30745945834497,-0.975877488255501,21.6441587090492,-4.26029184937477,22.0810332578991
2.31738945834513,-2.26643165767193,20.0136953687668,-2.7706060731411,20.3312806479381
2.3273194583453,-0.0476070065796375,16.9371337366104,-1.01888317465782,16.967819204674
2.33724945834547,2.34582003548741,15.833109254837,-1.82286597132683,16.109409072462
2.34717970834754,3.59006206423044,16.8763530993462,-3.40245619654656,17.5862601973318
2.35710970833316,2.83892084777355,15.9191919636726,0.521092164516449,16.1787416507003
2.36703970833332,2.58258008301258,14.6103020954132,0.0284525513648987,14.8368277186226
2.37697070834111,3.05166155666113,13.1643067145348,0.311216883659363,13.5169695375636
2.38690070834127,1.28757194325328,7.36019790530205,2.21286940813065,7.79276239415178
2.39683070834144,0.953626201450825,2.56574302554131,2.76344557285309,3.88961073107949
2.40676070834161,0.631419768333435,-2.00324029505253,2.1284227502346,2.99029196020734
2.41669070834178,0.150249432139099,-6.46995990693569,0.883323665857315,6.53170856574886
2.42662070834194,-0.316468194946647,-9.68374516546726,0.906680953502655,9.73124570132559
2.43655070834211,-1.21189113870263,-11.2239935696125,1.12814658522606,11.3454584085671
2.44648070834228,-2.7249232390523,-12.921240298748,0.583248103447259,13.2183144109562
2.45641070834245,-4.55167673170567,-15.2787253832817,0.244531764574349,15.9441840867312
2.46634070834261,-3.40418492585421,-19.038966858387,0.596000844240189,19.3500891742262
2.47627070834278,-1.82479745283723,-20.0448469948769,-2.76253457665443,20.3164311353918
2.48620070834295,-0.0161856776475906,-17.2234672093391,-2.0628579211235,17.3465693291234
2.49613170833618,1.08376482971013,-13.8740791726112,-1.03171781301498,13.9545354899292
2.50606170833635,1.15857651874423,-11.6676510572433,-0.679808986186981,11.7447231130018
2.51599170833651,1.0814046742022,-10.0326011610031,-0.106471931543201,10.0912763512528
2.52592170833668,0.993791749030352,-8.92380418181419,0.403913962841034,8.98805037842931
2.53585170833685,0.892466299161315,-8.48260194003582,0.679067559242249,8.55641072636496
2.54578170833702,0.66471154846251,-8.22190207600594,0.599064785242081,8.27045305935577
2.55571170833719,0.526692993119359,-7.84836322903633,0.474488686323166,7.88031410524602
2.56564170833735,0.379035229682922,-7.3431047397852,0.00220206141471863,7.35288105261271
2.57557170833752,0.190170164108276,-7.06836161792278,-0.226322913765907,7.07454045958721
2.58550170833769,0.0200438898056746,-7.18754833817482,-0.190113446116447,7.19009012415786
2.59543170833786,-0.0250091991573572,-7.72420579075813,0.0184052807092667,7.72426820562194
2.60536170833802,0.0709303803741932,-8.36226975023747,0.196697995662689,8.36488353750931
2.61529270834581,0.18988693960011,-8.87831752181053,0.382862817049027,8.88859735867236
2.62522270834597,0.141225460767746,-9.46942190766335,0.741136338114738,9.49943045491559
2.63515270834614,-0.38771118208766,-10.1136704671383,0.945608791708946,10.1651771389159
2.64508270834631,-1.15457154147327,-10.3473743212223,0.643470295071602,10.4314545873771
2.65501270834648,-1.76059955656528,-10.0306142771244,0.2953218126297,10.1882357917377
2.66494270834664,-1.8076785595715,-9.19689838886261,-0.457513049840927,9.38402685101513
2.67487270834681,-1.23855780422688,-7.63376456737518,-1.12166903972626,7.81450755577116
2.68480270834698,-0.314951646476984,-5.38582414448261,-0.13188860854134,5.39663699538642
2.69473270834715,0.420236465334892,-2.15500068426132,1.55037636637688,2.68780458988073
2.70466270834731,0.910597126185894,2.17033500730991,3.98510316967964,4.62823815756748
2.71459270834748,1.22970175758004,6.58268779277802,4.73278078794479,8.20019261825742
2.72452270834765,2.1668491896987,11.5019164073467,1.64789389014244,11.8196814984863
2.73445370834088,3.58110120624304,17.5597031593323,-0.801614674329758,17.939064830122
2.74438370834105,4.75680933594704,24.2761401629448,-0.39816614985466,24.74099336228
2.75431370834122,5.35226872801781,31.1082327532768,-0.259720437135547,31.5663805380729
2.76424370834138,3.49869990438223,35.9070730447769,-1.72299669742584,36.1182434966487
2.77417370834155,0.410989970862866,33.8370183706284,-2.72009314656258,33.9486617070006
2.78410370834172,-1.94469504833221,26.7091642570496,-4.83066200852394,27.2120669847342
2.79403370834189,-3.75562685251236,21.2534734869003,-5.40758689641953,22.2498733559545
2.80396370834205,-4.14074815660715,17.9241238582134,-3.41975459933281,18.7113530483682
2.81389370834222,-3.26704871535301,14.686367354393,-1.44088257551193,15.1142031206771
2.82382370834239,-1.89559714794159,11.3280213832855,-0.211789659261704,11.4874806579697
2.83375370834256,-1.0155034840107,8.58640580534935,0.474445416927338,8.6592557667399
2.84368370834272,-0.554024194702506,5.86558175683022,2.43015311121941,6.37319670952847
2.85361370834289,-0.476406536512077,2.60799149751663,3.6381364095211,4.50162408175467
2.86354370834306,-0.281759597919881,-0.0985080420970917,3.96327083587647,3.97449468786747
2.87347470833629,0.441443293243647,-2.57664866745472,3.63334052324295,4.47606455432508
2.88340470833646,1.12923906438053,-5.06299819886684,2.81280367434025,5.90093180240493
2.89333470833662,1.53732172653079,-7.36256836652756,1.74624113380909,7.72140719947231
2.90326470833679,1.58758687734604,-9.4940509647131,0.010605670614168,9.62587909200714
2.91319470833696,1.1901808655262,-11.7701808142662,-2.74464092731476,12.1444119130189
2.92312470833713,0.498401824906468,-14.195829230547,-4.51620693683624,14.9052372345511
2.9330547083373,0.188752287402749,-15.9095382106304,-3.93894291043282,16.3909824218428
2.94298470833746,0.0117697142064571,-16.2800961470604,-1.86442096352577,16.3865107516194
2.95291470833763,-0.698239994645119,-15.4680301594734,-0.537205336689949,15.4930980013124
2.9628447083378,-1.58916094779968,-14.1211310505867,-0.621760168075562,14.2238658729777
2.97277470833797,-1.97785636246204,-12.7461863565445,-1.28038118362427,12.9621201352893
2.98270470833813,-1.72245612233877,-11.4950470983982,-1.79442511439323,11.7610766675054
2.9926347083383,-1.17648244723678,-10.2306790995598,-1.97235471725464,10.4852796299146
3.00256570834608,-0.681791338473558,-8.96916044890881,-2.01301450073719,9.21753253141348
3.01249570834625,-0.252410558760166,-7.99440504133701,-1.87996637105942,8.21635543361183
3.02242570834642,0.244276314340532,-7.38945503354073,-1.60453503191471,7.5655964258682
3.03235570834659,0.587932380996645,-7.14498996376991,-0.978547911643982,7.23561345584326
3.04228570834675,0.673332902491093,-7.26502394556999,-0.900260710716248,7.35149096949332
3.05221570834692,0.371219695061445,-7.35588499903679,-2.41805171370506,7.75202052830151
3.06214570834709,-0.160557927154005,-7.50099184155464,-1.82831148326397,7.72226523339339
3.07207570834726,-0.437346405051649,-8.14397389411926,-1.82401202559471,8.3571886741668
3.08200570834742,-0.538604465760291,-9.10356922566891,-2.00693865895271,9.33771225717958
3.09193570834759,-0.651817780137062,-9.60870258450508,-1.97874338507652,9.83196100276855
3.10186570833321,-0.615687542259693,-9.77454599261284,-2.83747015357018,10.1966689356769
3.11179570833338,-0.397819994688034,-9.54064625680447,-3.19012683928013,10.0677257112193
3.12172570833354,-0.277542914897203,-8.03602552235127,-0.750874291062355,8.07580017499622
3.13165670834132,-0.360486253648996,-4.37234789013863,3.00282473444939,5.3164210515431
3.14158670834149,-0.273430202677846,-0.501724432110786,6.74511993527413,6.76927872248925
3.15151670834166,0.238200180195272,3.47903074800968,6.52520323097706,7.39855874322799
3.16144670834183,1.31241120770574,7.93022483289242,1.79648684263229,8.23639812382125
3.171376708342,2.84270458102226,11.6642409610748,-1.63830854952335,12.1169113818837
3.18130670834216,3.83496245920658,15.4325352215767,-2.11986242651939,16.0425651669581
3.19123670834233,3.91023395866156,19.2224922466278,-1.92301532685757,19.7102035943433
3.2011667083425,3.63095368981361,22.9054615974426,-1.31888860702515,23.2289358957149
3.21109670834267,2.70677231222391,26.0682743382454,-2.05744690775871,26.2890591520977
3.22102670834283,0.737725949585438,28.2691780042648,-2.40408271551132,28.3808082745457
3.230956708343,-1.21944734930992,27.7949103426933,-1.39837858021259,27.8567685751542
3.24088670834317,-2.62267648726702,24.4302096176147,-0.873769315481186,24.5861149174516
3.25081670834334,-3.11243634670973,19.5391821241379,-1.09979226708412,19.8160652280741
3.2607467083435,-2.44259101599455,15.2348455381393,-0.129305290393531,15.4299542870517
3.27067770833673,-0.502307984232903,11.2383601784706,0.602705846428871,11.2657137878333
3.2806077083369,1.74309240818024,8.99426722347736,1.07211622595787,9.22413395570213
3.29053770833707,3.38222424566746,7.40557288348675,1.07890016555786,8.21254991752597
3.30046770833724,4.3068222373724,4.77391945838928,1.49484360516071,6.60102887309267
3.3103977083374,3.78595519065857,1.20266057789326,2.01825594484806,4.45569368675716
3.32032770833757,2.50811725348234,-1.86141607940197,2.45161473155022,3.97063430320976
3.33025770833774,1.47784253329039,-3.66408927619457,2.60970356225967,4.73498906651294
3.34018287500658,0.580738368853927,-4.63213324964047,2.08095446884632,5.11119232634572
3.35011287500674,-0.338463227525353,-5.54187989830971,1.41046945273876,5.72856127145248
3.36004287500691,-1.22599856972694,-6.90581779360771,0.762123749256134,7.05508501016548
3.36997287500708,-1.98666168451309,-8.94125519692898,0.091525297164917,9.15976233454466
3.37990287500725,-2.44650455743074,-11.3552074277401,-0.320260187387466,11.620184459128
3.38983387500048,-2.55629217088223,-13.5344424819946,-0.67246663749218,13.7901404757122
3.39976387500064,-2.35931409358978,-15.3691747927666,-1.99088863670826,15.6761453924936
3.40969387500081,-1.80778658688068,-16.5971532297134,-3.40338356494904,17.0386797424113
3.41962387500098,-1.01387240320444,-16.3965539717674,-2.88403504014015,16.6791060165651
3.42955387500115,-0.415094716250897,-14.9556105852127,-0.834966022968292,14.9846508087275
3.43948387500132,-0.104633877575398,-12.566821846962,0.302018043994904,12.5708859862985
3.44941387500148,0.0585084823518992,-10.3904156756401,0.621063179969788,10.4091248733315
3.45934387500165,0.059889302328229,-8.71846400141716,0.537931597419083,8.73524880447272
3.46927387500182,-0.0759527731686831,-7.296466178298,0.138722815923393,7.29818001521313
3.47920387500199,-0.368579238653183,-6.38180436015129,-0.141159971952438,6.39399747295022
3.48913387500215,-0.807879088819027,-6.23303482174873,0.029769344329834,6.28524286922512
3.49906387500232,-1.19335414946079,-6.80693085193634,-0.106530421972275,6.91156642736534
3.50899387500249,-1.46651501476765,-7.84045720875263,-0.643826390504837,8.00237139552587
3.51892487501027,-1.69279699802399,-8.97971467316151,-0.811288892626762,9.17382291932925
3.52885487501044,-1.88428424745798,-10.250576004982,-0.727046302556992,10.4476519795212
3.53878487501061,-1.81713745415211,-11.1578907966614,-0.948292663693428,11.3445923035391
3.54871487501077,-1.70730803310871,-11.254226013422,-1.05169014751911,11.431472173237
3.55864487501094,-1.7899233430624,-10.2149290394783,-1.15566007375717,10.4347568760222
3.56857487501111,-1.57281739532948,-8.32237419784069,-0.782820553779602,8.50579066679608
3.57850487501128,-0.735420392453671,-6.01177150368691,-0.179094368219376,6.05923382606304
3.58843487501144,0.211552262306213,-2.76294505119324,1.56762565255165,3.1837195074532
3.59836487501161,1.16045120917261,1.09925490796566,1.85540455698967,2.4489864090384
3.60829487501178,2.56897273510695,5.59438321709633,-1.24232341110706,6.28013630037093
3.61822487501195,4.25413619309664,11.0505756783485,-2.08588425636292,12.0234691625698
3.62815487501211,5.33232913792133,17.0275901627541,-1.30287015974522,17.8905011511416
3.63808487501228,5.37343915700913,23.3702637863159,-1.1217894923687,24.0062802091715
3.64801487501245,4.18979547858238,29.9533795952797,-2.14213914871216,30.3207535437976
3.65794487501262,0.664467354118824,34.6458660507202,-0.0922754949331284,34.6523601798796
3.66787587500585,-3.65314299613237,33.2015406346321,4.56625442504883,33.7125856875084
3.67780587500602,-5.65941127181053,25.0233722233772,4.01878137767315,25.9682247590149
3.68773587500618,-4.84402348101139,17.7833065330982,0.302191121578217,18.4337156918697
3.69766587500635,-2.76005594193935,13.0412052834034,-1.36210420846939,13.3994877484639
3.70759587500652,-0.563428710177541,10.1591442632675,-2.43319834113121,10.4616498813819
3.71752587500669,0.90655553072691,9.5788987416029,-2.09598005890846,9.84734870102177
3.72745587500685,1.60927127659321,9.90457637429237,-0.587138219475746,10.0516226791811
3.73738587500702,1.75256109684706,9.13712639629841,1.65710383951664,9.45010805837985
3.74731587500719,1.59809432387352,6.54403418898583,3.32482446849346,7.51217323288707
3.75724587500736,1.06976973831654,3.1149252140522,4.38187534332275,5.48160541325038
3.76717587500752,0.851536959037185,0.396435958743095,4.21631260156632,4.31967228110163
3.77710587500769,0.917374049127102,-1.94937925279141,3.18822298586369,3.84791117683543
3.78703587500786,0.712120407521725,-4.30396996557713,1.93150606870651,4.77095259176288
3.79696587500803,0.0448835197091103,-6.73784307539463,0.491684178113937,6.75590831568875
3.80689687500126,-0.791048974916339,-9.24006019592285,-0.69258632183075,9.29968530210464
3.81682687500143,-1.41425143182278,-11.8951416599751,-1.52516785025597,12.0756216897823
3.82675687500159,-1.52469042509794,-14.5609562730789,-1.86407948613167,14.7587574276942
3.83668687500176,-1.23902558147907,-16.6574146342278,-2.11757850408554,16.8371252121349
3.84661687500193,-0.628955751657486,-17.5513533353806,-1.69773204803467,17.6444859190581
3.8565468750021,-0.235958613529801,-17.2854079341888,-0.28311048746109,17.2893364669304
3.86647687500226,-0.129220249950886,-15.9795703125,0.469050191044807,15.9869751149756
3.87640687500243,0.14377890329808,-13.1586933875084,0.354247128367424,13.1642460880769
3.8863368750026,0.460730407163501,-10.2426553666592,-0.41719591319561,10.2614966695031
3.89626687500277,0.496055775806308,-8.67240139067173,-1.75109139919281,8.86131696205269
3.90619687500293,0.00773082308471203,-7.79215277552605,-1.54979281425476,7.9447820869977
3.9161268750031,-0.721232416033745,-7.42044059872627,-1.17792802512646,7.54788906314483
3.92605687500327,-1.28200349360704,-7.18128597021103,-0.867467771172524,7.34621681395216
3.93598687500344,-1.684404489398,-7.4538375556469,-0.416975473165512,7.65315499223019
3.94591787501122,-1.83801610708237,-8.29301006555557,-0.396171079874039,8.50348579594444
3.95584787501139,-1.63757910937071,-9.30715874969959,-0.385056107640266,9.45796688181916
3.96577787501155,-1.33278626918793,-9.89956647992134,-0.138284311294556,9.98983775045763
3.97570787501172,-1.06916893690825,-10.0225743556023,-0.0724996451474726,10.0797011427806
3.98563787501189,-1.06061299860477,-9.81446376442909,-0.405324932523072,9.87992344186057
3.99556787501206,-1.36845282286406,-9.58642937064171,-0.752521451711655,9.71280493688578
4.00549787501222,-1.5948777705431,-9.32033018767834,-0.507575777359307,9.46941513928302
4.01542787501239,-1.2450736489892,-8.3253638792038,-0.0759816437959671,8.41829349231497
4.02535787501256,-0.184857347421348,-6.52920974314213,-0.258556859493256,6.53694146818134
4.03528787501273,1.16908820450306,-3.884215310812,0.968632203340531,4.17038896938917
4.0452178750129,2.09732141017914,-0.122054779529572,2.3164306139946,3.12722005241928
4.05514787501306,3.33338303804398,3.90258024573326,0.146707225441933,5.13450076080466
4.06507787501323,4.89571988403797,8.18317128896713,-0.88404638171196,9.57673762471118
4.0750078750134,4.81399890571833,14.0593283200264,2.02624850392342,14.9981659303465
4.08493787501357,3.78048102736473,21.5571544790268,-1.50143634080887,21.9375763728902
4.0948688750068,3.45363804459572,28.7155287194252,-4.10293742895126,29.2120403416999
4.10479887500696,2.17994958400726,36.977819852829,-3.94038132548332,37.2510126875405
4.11472887500713,-1.37096887975931,40.4471927547455,-2.97803721785545,40.5798430637643
4.1246588750073,-5.12973714888096,31.9440548086166,-0.906007354259491,32.3659958931976
4.13458887500747,-5.89955583393574,22.4700989699364,-1.18779870986938,23.2620070615506
4.14451887500763,-2.30501304835081,17.5185434389114,-1.68633699417114,17.7498220225445
4.1544488750078,1.69094138413668,15.8497130084038,-2.68125710964203,16.1635956674669
4.16437887500797,2.95028954833746,13.6449805855751,-1.36137681484222,14.0265124115634
4.17430887500814,2.69166836947203,9.7267169380188,-0.299456963539124,10.0967210259851
4.18423887500831,3.02598175495863,5.70152993559837,-0.398281924724579,6.4670424213414
4.19416887500847,3.57547413825989,3.02351335287094,1.0196187543869,4.79220937696295
4.20409887500864,3.21301868855953,-0.1412716537714,1.97192319273949,3.77252274363668
4.21402887500881,2.3466800147295,-2.89189837574959,2.91792667150497,4.73120274005184
4.22395887500898,1.73503699153662,-4.43443128705025,3.61561059594154,5.9788940601967
4.23388987500221,0.902206079363823,-5.98655304729939,3.44480231702328,6.96559087236248
4.24381987500237,0.004861073596403,-8.21168231248856,3.31907607078552,8.85708846037652
4.25374987500254,-0.558359685838223,-10.6004663729668,2.69371752619743,10.9516102457178
4.26367987500271,-0.552886691987515,-12.4686026573181,1.5074203813076,12.5715572673491
4.27360987500288,-0.193981963992119,-13.9511220860481,-0.109024844169617,13.9528965766546
4.28353987500304,0.21062460154295,-14.8754616308212,-1.9817453455925,15.0083655361797
4.29346987500321,0.599890412092209,-15.5365595269203,-3.21117272257805,15.8762772933168
4.30339987500338,0.81629937171936,-15.491309094429,-3.4569966852665,15.8933265305081
4.31332987500355,0.686979719102383,-14.5038757538795,-2.61463978171349,14.7536671443595
4.32325987500371,0.331403555162251,-12.6704356777668,-1.14116307199001,12.7260371576416
4.33318987500388,-0.199818636383861,-10.5066419506073,-0.0671155107021332,10.508756208871
4.34312008334382,-0.564023006558418,-8.74499632716179,-0.0530740070343018,8.76332696892128
4.35305008334399,-0.755377231836319,-7.86638902544975,-0.84064074575901,7.94715973952476
4.36298008334416,-0.912998870015144,-7.47744042634964,-1.74262813925743,7.73191018429396
4.37291108333739,-1.05469970941544,-7.45320839524269,-2.12506878733635,7.82167656010323
4.38284108333755,-1.21316831678152,-8.18268070757389,-1.87377066135407,8.48168953795738
4.39277108333772,-1.09084339588881,-9.5037789773941,-1.41925606369972,9.6708863058078
4.40270108333789,-0.751044737398624,-10.6659996271133,-1.10597277402878,10.7494554289996
4.41263108333806,-0.457018083035946,-11.0117337942123,-1.16412450313568,11.082523744239
4.42256108333822,-0.357960073761642,-10.9604747629166,-1.38229815244675,11.0530941652189
4.43249108333839,-0.374323433674872,-10.521695022583,-1.53136706829071,10.6391385590701
4.44242108333856,-0.267191406302154,-9.62292008936405,-1.10214752554894,9.68951554320244
4.45235108333873,-0.0149296591803432,-8.02793063700199,-0.249049908109009,8.03180671231371
4.46228108333889,0.505555345080793,-5.81339418768883,0.356842634305358,5.84623595607054
4.47221108333906,1.39595315515995,-2.86150104045868,1.68665976047516,3.60301187391233
4.48214108333923,2.23160856485367,0.676231659650803,3.5441476804018,4.24244608978592
4.4920710833394,2.83155364841223,4.69786823272705,3.86016512811184,6.70734946250702
4.50200108333956,3.31913337349892,9.15421371459961,2.88334156036377,10.1552909184011
4.51193108333973,3.67898739695549,13.9316555356979,4.17948976099491,15.0031366352027
4.52186208334751,3.88602970182896,18.649589073658,1.73963319540024,19.1294203548968
4.53179208333313,3.01662328630686,22.3654618763924,2.09443405508995,22.6649631591796
4.5417220833333,0.891377035975456,24.8653149676323,3.62028369069099,25.1432872843013
4.55165208333347,-1.60070159733295,24.942741458416,1.7845982837677,25.0576812195286
4.56158208333363,-3.99363513439894,21.723315975666,1.6550216460228,22.1492815958924
4.5715120833338,-5.34559237718582,18.2032781195641,0.0741205115988851,18.9720896585344
4.58144208333397,-5.0514873701334,15.2552148985863,-2.10924271345139,16.2076528552691
4.59137208333414,-3.67041713297367,11.7468176794052,-2.79616659164429,12.6205481311804
4.6013020833343,-1.72298354119062,9.48727813482285,-2.18845962166786,9.8876930679695
4.61123208333447,-0.619713350236416,9.15602050423622,-1.64721561312675,9.32362994689214
4.62116208333464,-0.123431798815727,8.86301828205586,-1.31541302204132,8.96095083657817
4.63109208333481,1.13345497995615,7.81246190965176,0.0675879657268524,7.8945455483174
4.64102208333497,2.29022719413042,5.53885221004486,0.0225433552265167,5.99370775132707
4.65095208333514,2.99095137834549,3.00679733276367,0.00514962455257774,4.24106671328978
4.66088308334292,3.02245062142611,0.435393033027649,1.91359604716301,3.60369597550709
4.67081308334309,3.15792212963104,-1.61859700083733,2.71816941261292,4.469985837069
4.68074308334326,3.32534077763557,-2.78067088544369,3.29890551567078,5.44727449848851
4.69067308334343,3.20208614945412,-3.89549517452717,3.36419318675995,6.06185072078919
4.70060308334359,2.87777325689793,-5.37495592474938,2.6149777507782,6.63399116280541
4.71053308334376,2.16044531911612,-6.7990423732996,1.71752077996731,7.3378729070783
4.72046308334393,1.0687070068717,-8.68227090597153,1.07525040663779,8.81363297330851
4.7303930833441,-0.204103494286537,-10.9356708741188,0.697612588405609,10.9598001362676
4.74032308334427,-1.5720885398984,-13.008948533535,-0.151585594005883,13.1044718519196
4.75025308334443,-2.96588465720415,-14.7195947420597,-2.31134938359261,15.1922768913466
4.7601830833446,-4.18558636039496,-15.7089401221275,-5.39150179088116,17.127703421708
4.77011308334477,-4.29079384982586,-15.5116480493546,-6.76830063700676,17.459439583837
4.78004308334494,-3.16706074297428,-14.0962067091465,-4.64599056601524,15.1762493942403
4.7899730833451,-1.77434226751328,-12.1872966206074,-1.7255766351521,12.4360807381078
4.79990408333833,-0.598952226340771,-10.059458591938,-0.0256026915460825,10.0773065067095
4.8098340833385,0.52751470964402,-8.61466189026833,-0.130172395929694,8.63177942866906
4.81976408333867,1.46841506749392,-8.13837050735951,-0.096780189871788,8.27034967402551
4.82969408333884,2.19484273463488,-8.18602999269962,0.118297943472862,8.47599056598031
4.839624083339,2.36980458319187,-8.56808004677296,0.0424952244758606,8.88986925069932
4.84955408333917,1.99764129370451,-8.81315147280693,-0.45398717880249,9.04811107245426
4.85948408333934,1.36407852083445,-8.78270151257515,-1.37032539367676,8.99301661037869
4.86941408333951,0.70096392005682,-8.69896879971027,-2.28127715349197,9.02040099145258
4.87934408333967,0.100747525691986,-8.60876906633377,-2.84543172240257,9.06738863114696
4.88927408333984,-0.242876088917255,-8.40140282571316,-3.0187139582634,8.93057625219577
4.89920408334001,-0.329873594641686,-8.04242939293385,-2.80201673090458,8.5229563467753
4.90913408334018,-0.278917156755924,-7.44148180425167,-2.29634601294994,7.79273066611009
4.91906408334035,-0.139058482646942,-6.31318962335587,-1.69881787598133,6.53924174945368
4.92899508333358,0.26195204526186,-4.23364316403866,-0.796618813276291,4.31589560208468
4.93892508333374,0.907730821073055,-1.21355101704598,2.29746458530426,2.75227630066942
4.94885508333391,1.27034356087446,2.70406826734543,6.3072617161274,6.97906213705295
4.95878508333408,1.11346831977367,7.20606062293053,4.47103485703468,8.55320256356113
4.96871508333425,1.29836283355951,12.9019538426399,-1.77388384580612,13.087888405071
4.97864508333441,1.24775810569525,18.1944827377796,0.753717792034149,18.2527858940962
4.98857508333458,1.12866662196815,22.4468878626823,3.42191046774387,22.734250247427
4.99850508333475,1.3671564951539,28.5213473653793,-2.45254502356052,28.6592279992233
5.00843508333492,0.803485490977764,33.3442243909836,-1.88662810385227,33.4072186027619
5.01836508333508,-1.58191390872002,32.0828068971634,1.51195665121079,32.1573469510533
5.02829508333525,-4.17996543198824,25.8334033799171,0.170832252502441,26.1699450679711
5.03822508333542,-6.15999783575535,19.25649497509,-0.403648499250412,20.2217977482994
5.04815508333559,-6.44890583753586,14.789194149971,-0.146970925731584,16.1347528818991
5.05808508333575,-5.57143406510353,12.1121552217007,-0.0917287802696228,13.3324264792834
5.06801508333592,-4.12662011414766,10.0464941453934,0.11173442563042,10.861561709155
5.0779460833437,-2.05502323687077,8.49035534799099,1.57380499005318,8.87615438047099
5.08787608334387,0.361731856763363,6.5730036342144,2.2009902048111,6.94115153222198
5.09780608334404,0.775505394637585,5.30800881385803,2.26083411812782,5.82131747071033
5.10773608334421,0.0452212009811774,5.16838198184967,2.72469256639481,5.84278759229647
5.11766608334438,0.853376858532429,3.03336883485317,4.4527055901289,5.45492122979813
5.12759608334454,0.599740723371506,1.10005480706692,5.93402867853642,6.06485827299483
5.13752608334471,-0.164181044697762,-1.62826127886772,7.422871286273,7.60113204333895
5.14745608334488,-0.873130214810372,-5.36936598658562,6.99055681228638,8.8577836965982
5.15738608334505,-0.585847446620464,-9.40098843455315,5.46588656008244,10.8902578787191
5.16731608334521,0.425762084126473,-13.3633552908897,2.79884403169155,13.6599438467574
5.17724608334538,1.70297963172197,-16.8486349582672,-1.30840571880341,16.984951136462
5.18717608334555,3.19589774876833,-20.4196909403801,-9.42626828670502,22.7163393691449
5.19710608334572,3.94805813491345,-21.0713911914825,-11.3077420699596,24.2374858535674
5.20703708333895,3.98639715850353,-17.9782094335556,-5.54316511631012,19.2310700755
5.21696708333911,3.27126368075609,-15.2397700631619,-1.62653401136398,15.6715465266579
5.22689708333928,1.80393941134214,-12.5142460227013,1.00994161248207,12.6838690066206
5.23682708333945,0.0473972377181053,-9.6964137428999,2.89248660564423,10.1187531215794
5.24675708333962,-1.48833711594343,-8.21332596480847,-0.124818721823394,8.34802075274189
5.25668708333978,-2.27578457146883,-7.42051193475723,0.00197518944740295,7.76164909609958
5.26661708333995,-2.34698377758265,-6.35991180002689,0.312881549410522,6.78636175135978
5.27654708334012,-1.94262425690889,-5.61375504255295,-0.189896587505937,5.94340772581403
5.28647708334029,-1.26498780369759,-5.31218898832798,-0.620325334444642,5.49584838871767
5.29640708334046,-0.899413814619184,-5.89994467377663,-0.853389503136277,6.02881132625796
5.30633708334062,-0.756301676630974,-7.1904123044014,-0.509328736066818,7.24799538456981
5.31626708334079,-0.739857552051544,-8.71237646520138,-0.404943072795868,8.75310640635243
5.32619708334096,-0.739453363269568,-9.87000880479813,-0.434558123722673,9.90720474433312
5.33612708334113,-0.792019539624453,-10.2119586539269,-0.924423744678497,10.284257569722
5.34605870833912,-0.95158508464694,-9.1541347771883,-1.76119538784027,9.37045926763468
5.35598870833928,-1.17815036550164,-6.67136081814766,-1.92597694158554,7.04304484077495
5.36591870833945,-1.17440697804093,-3.52734453678131,-1.75137031137943,4.10958503973497
5.37584870833962,-0.896916541904211,-0.294259958267212,-1.43902433037758,1.72099948564765
5.38577870833979,-0.524703258723021,2.972351385355,-0.65711243391037,3.08901003859423
5.39570870833995,-0.319814629554749,6.53432547211647,-1.16952966928482,6.64586265432599
5.40563870834012,0.0726727044582367,9.90109260320664,-2.38130430221558,10.1836892253739
5.41556870834029,1.00001830279827,12.4442829179764,-2.22003341674805,12.6802508776462
5.42549870834046,2.27595209419727,14.3720374131203,-1.0482513999939,14.5888398557527
5.43542870834062,3.33992665708065,16.4347234261036,1.19068489551544,16.8128812131533
5.44535870834079,4.08602581948042,18.4005222451687,2.35245063185692,18.9949690673013
5.45528870834096,4.79114009320736,19.3691497707367,3.02743449568749,20.1812870218836
5.46521870834113,5.07755718111992,18.3399579548836,2.77686610221863,19.231396986805
5.47514870834129,4.72978058159351,15.8309832072258,0.413655387572944,16.5276121819564
5.48507970833452,3.46389523029327,13.0882788777351,-1.84227404952049,13.663659386173
5.49500970833469,1.25577843904495,11.0492097687721,-2.86762307524681,11.484131578138
5.50493970833486,-1.18726990230382,10.2159464550018,-4.61463779568672,11.2725353748729
5.51486970833503,-3.15861911773682,9.92756645679474,-6.10434696078301,12.0746222426472
5.5247997083352,-3.61820705205202,8.36872975409031,-4.63742497980595,10.2290161018469
5.53472970833536,-2.88786028862,6.32646631121636,-2.04400883674622,7.24857814735003
5.54465970833553,-2.36902383372188,5.41837617874146,-0.587718299813569,5.94276763293256
5.5545897083357,-1.63681166231632,5.69772573709488,1.84850718140602,6.20968677090542
5.56451970833587,-1.19047132596374,3.43516902923584,2.50826781928539,4.41690114114247
5.57444970833603,-1.08677431851625,0.190767164826393,3.05391185760498,3.24712921895367
5.5843797083362,-1.00714912846684,-3.14242233037949,3.65070441484451,4.9210578328246
5.59430970833637,-0.708198972344399,-5.89909331917763,3.78270998597145,7.0434183895864
5.60423970833654,-0.52283975109458,-8.04824620306492,3.30954218566418,8.71783791023694
5.61417070834432,-0.534263456314802,-9.66141523361206,2.43683589398861,9.97830401076535
5.62410070834449,-0.692024989128113,-10.6290007853508,1.36981785535812,10.7392251693231
5.63403070834465,-1.19330971062183,-10.9998522520065,0.221591858491302,11.0666092631477
5.64396070834482,-1.59040158078074,-11.2708063781261,-0.93880087852478,11.4211120601664
5.65389070834499,-1.66713283762336,-11.8694267749786,-2.86275234460831,12.3230667794759
5.66382070834516,-1.25392077863216,-12.9183424186707,-4.40706397891045,13.7068632837466
5.67375070834532,-0.491796737015247,-13.698014831543,-3.94905800879002,14.2643798853122
5.68368070834549,-0.237106348872185,-13.7405778837204,-2.57051493823528,13.9809601618398
5.69361070834566,-0.593144771754742,-13.5746081757545,0.0448049112036824,13.5876346479286
5.70354070834583,-0.912081880420447,-11.3184202551842,-0.649352594017983,11.3736620848745
5.71347070834599,-0.931543752998114,-8.68821284651756,-2.16440417647362,9.00208096327061
5.72340070834616,-1.40870257034898,-7.62422600448132,-1.04340756654739,7.82316844053899
5.73333070834633,-2.44784196183085,-7.96426089048386,0.227421605587006,8.33505263261597
5.74326170833956,-1.48407493427396,-7.55885062515736,-3.39409233927727,8.41775290630003
5.75319170833973,-0.196728547364473,-7.09959276616573,-2.26256021618843,7.45399881262531
5.7631217083399,-0.205594534277916,-6.9380780518055,-0.221870259046555,6.94466864417011
5.77305170834006,-0.040135580599308,-6.59676671862602,-2.17356793284416,6.94574254946801
5.78298170834023,-0.142650573402643,-6.14924889922142,-1.96492466032505,6.45713095201123
5.7929117083404,-0.295977577865124,-6.26251180529594,-1.33248864591122,6.40953842562413
5.80284170834057,-0.70598024636507,-6.23465099215508,-1.42023371815681,6.43322197008835
5.81277170834073,-1.2776214440167,-5.68510627627373,-1.09176988720894,5.9282975139035
5.8227017083409,-1.52094689145684,-4.38021005630493,0.583807060718536,4.67336605329948
5.83263170834107,-0.92387907654047,-2.04960462212563,2.45238831818104,3.32695658496753
5.84256170834124,0.178825688660145,1.39769270181656,3.21343793392181,3.50880419385348
5.8524917083414,1.13077914789319,6.07063542366028,2.82952144861221,6.79245666577753
5.86242170834157,2.12329781189561,11.1198955893517,1.10005656123161,11.3741195683003
5.87235170834174,3.61250806331635,15.5764422154427,-0.50996198952198,15.9979944939766
5.88228270833497,4.84385069578886,20.0771446752548,-1.09983780227602,20.6824628868402
5.89221270833514,5.38065637528896,23.8028384613991,-0.498131866268814,24.4084968239462
5.90214270833531,5.87540215551853,25.883497645855,-0.445725136175752,26.545705335686
5.91207270833547,5.9181412088871,26.4020731687546,-1.86295214295387,27.1212915190913
5.92200270833564,4.77514854311943,25.2875681376457,-1.69582994878292,25.7902885819473
5.93193270833581,2.89694949299097,22.6275457763672,-1.25408625483513,22.846681959556
5.94186270833598,0.311960357129574,18.7738739812374,-0.867368953227997,18.7964888324609
5.95179270833614,-0.79647497177124,13.8621871054173,-0.732508771419525,13.9043580515772
5.96172270833631,-0.162169163972139,9.24782471358776,-0.70087475001812,9.27576337484958
5.97165270833648,0.707929561883211,6.28468620121479,-1.14413404226303,6.42709013621195
5.98158270833665,1.00511941373348,3.97293862223625,-0.930175065994263,4.2023483893316
5.99151270833681,1.00749499127269,1.61947583734989,0.141724776439369,1.91254648504461
6.00144270833698,0.975876464992762,-0.182975165247917,1.11349229335785,1.49187126569004
6.01137270833715,0.902201840132475,-1.82453301250935,1.87888522088528,2.77003583863747
6.02130370834493,0.66339146643877,-3.14367129564285,2.19784674167633,3.89272240889199
6.0312337083451,0.145246006250381,-4.02363515138626,2.20578550636768,4.59088509264875
6.04116370834527,-0.582691704332829,-4.92828887522221,2.30411579310894,5.4714267287419
6.05109370834543,-1.11882415004075,-6.16213908612728,2.30230257153511,6.67265484843845
6.0610237083456,-1.21326486892998,-8.02189981877804,1.97055202066898,8.34900973833744
6.07095370834577,-1.50398777335882,-9.87343995094299,0.729897989630699,10.0139675834585
6.08088370834594,-1.97656149655581,-11.6709769535065,-1.64807281494141,11.9513447947206
6.0908137083461,-2.06982575565577,-13.511790368557,-3.88348382413387,14.2103520095357
6.10074370834627,-2.13768561691046,-14.0655871796608,-4.46324051856995,14.9107665273113
6.11067370834644,-2.35770347803831,-13.9376185262203,-3.09199477314949,14.4698447659254
6.12060370834661,-2.52205467671156,-13.3526478695869,-1.29792107641697,13.6505884137686
6.13053370834678,-2.0948959851265,-12.2778922104836,-0.042400426492095,12.4554014032836
6.14046470834001,-1.04174966163933,-11.1027492141724,0.450612092837691,11.1606152934568
6.15039470834017,0.103904071971774,-10.2387622904778,0.583117162361741,10.2558800169523
6.16032470834034,0.865868338420987,-9.8166693341732,0.368585743680596,9.86167228447696
6.17025470834051,0.917316819503903,-9.71517219543457,-0.0982553692907095,9.75887775576086
6.18018470834068,0.176431911662221,-9.7954936426878,-0.614062966480851,9.81630771981977
6.19011470834084,-0.600352853760123,-9.99715417027474,-1.35124651372433,10.1059082815011
6.20004470834101,-1.10155286371708,-10.3253806042671,-2.2884323912859,10.6331475182105
6.20997470834118,-1.49205375239253,-10.6912362098694,-3.11232320308685,11.2345588171376
6.21990470834135,-1.71733556941152,-10.8133424448967,-3.61794480443001,11.5311378838549
6.22983470834151,-1.55337730363011,-10.0683440208435,-3.2077749055624,10.6805595459341
6.23976470834168,-0.930061630010605,-8.07140527009964,-1.55567102015018,8.27240654179576
6.24969470834185,-0.0581074273120612,-5.34887208044529,-0.961416008323431,5.43489923983293
6.25962570833508,1.05370290532708,-2.03454745709896,1.10407082095742,2.54335320896886
6.26955570833525,2.2517355582118,1.66368605017662,4.95354124546051,5.68996794087156
6.27948570833541,3.43238049209118,6.19809653878212,8.07130820631981,10.739816232504
6.28941570833558,4.34851990163326,11.3841990923882,5.63811278879643,13.4275064747414
6.29934570833575,4.91561795890331,16.7949060630798,0.264014504402876,17.501482029934
6.30927570833592,4.8895849853754,21.6265819787979,-0.705887129455805,22.1836734120931
6.31920570833609,3.63249735474587,23.7785140442848,4.31137429475784,24.4376904697638
6.32913570833625,1.72482249051333,22.8771938180923,3.82596300959587,23.2589553197288
6.33906570833642,-0.716626198813319,19.9114018392563,1.10522856965661,19.9549243672921
6.34899612500158,-3.86179650127888,17.5047428405285,3.49046205461025,18.2623333526961
6.35892612500174,-5.82758245646954,16.7672884941101,3.29919319868088,18.055119952354
6.36885612500191,-6.2221648478508,15.0641384160519,1.4940109616518,16.3669077826368
6.37878612500208,-5.61647341310978,12.2844925475121,0.160402647033334,13.5084884335452
6.38871612500225,-4.23537891000509,9.38607511103153,-1.77273545265198,10.4488961850681
6.39864712501003,-1.51855026394129,6.70389297187328,-3.79802852153778,7.85322841466251
6.4085771250102,1.10917178571224,4.57396047055721,-4.86356312155724,6.76798512659504
6.41850712501037,2.1522653567791,3.9925858515501,-4.53121673941612,6.4113113391532
6.42843712501053,2.55914912045002,3.03959144175053,-2.72964515805244,4.82071810442618
6.4383671250107,2.8375908985734,1.32104915320873,-0.930335572063923,3.26536632700033
6.44829712501087,3.31916202485561,-0.196369382143021,0.755670323520899,3.40975587386209
6.45822712501104,3.40981433272362,-1.65564028143883,2.39845301628113,4.48559420773639
6.4681571250112,2.97833396404982,-2.85908789455891,3.51463035106659,5.42194460455513
6.47808712501137,2.21480863720179,-4.12337344765663,4.06088542342186,6.19664234165758
6.48801712501154,1.4171314778924,-5.50040033519268,4.16185046553612,7.04156692579886
6.49794712501171,0.496844784468412,-6.78679245650768,4.07769382953644,7.9331578551673
6.50787712501187,-0.547615719437599,-8.19337584972382,4.04682345449925,9.15467480923806
6.5178081250051,-1.52038512021303,-9.92011359572411,4.00432706058025,10.8053162782924
6.52773812500527,-2.22761170059443,-11.7736236548424,3.69105371117592,12.5381157018619
6.53766812500544,-2.69339592933655,-13.3621472561359,1.82300864338875,13.752262411716
6.54759812500561,-2.99285757064819,-14.260550891161,-0.885268449783325,14.5980892032403
6.55752812500577,-3.04007793009281,-14.5426170659065,-5.99189213991165,16.0197551904818
6.56745812500594,-2.41526902377605,-15.2819963157177,-14.8994246900082,21.4794271791416
6.57738812500611,-1.50396993935108,-14.3141289281845,-11.3980757045746,18.3595300135481
6.58731812500628,-0.391491845548153,-11.0304846453667,-4.9966837567091,12.1157627057219
6.59724812500645,0.23899821549654,-8.3318683218956,-1.88744598314166,8.54632097570033
6.60717812500661,0.639615225791931,-7.3112181186676,-0.198294870257378,7.34182122305962
6.61710812500678,1.03729810327292,-7.08097698569298,0.148661511093378,7.15809490519983
6.62703812500695,1.27424979329109,-7.24437041044235,0.275935953855515,7.36075782987222
6.63696912500018,1.34885237127543,-7.73518159925938,0.477469012141228,7.86641047432508
6.64689912500035,1.41948030441999,-8.31976224660873,0.437938910722733,8.45134064301382
6.65682912500051,1.47788755685091,-8.64258292973042,-0.0615779051184654,8.76824858032442
6.66675912500068,1.25424120604992,-8.56042311787605,-0.796833990812302,8.68843538094945
6.67668912500085,0.78468376904726,-8.11962784230709,-1.79519694685936,8.35265329060101
6.68661912500102,0.239215805009007,-7.70536547720432,-2.41752546429634,8.07925186568531
6.69654912500118,-0.417428851649165,-6.75413985013962,-2.21406107068062,7.1200223585419
6.70647912500135,-0.835997983440757,-4.47291766047478,-2.41672731935978,5.15232529658639
6.71640912500152,-1.00435306303203,-1.44650642752647,-0.225946389622986,1.77543169147137
6.72633912500169,-0.855940058603883,2.5631924700737,3.21574173688889,4.20042663796602
6.73626912500185,0.305742939636111,6.661667304039,1.50790979325771,6.83703751338561
6.74619912500202,1.85824615761638,12.1255476844311,1.95714084684849,12.4222536491617
6.7561301250098,2.95103185236454,20.5520017361641,-1.90527195096016,20.8500221957694
6.76606012500997,3.60097501516342,31.2251700496674,-6.1136124587059,32.0211574273279
6.77599012501014,2.51091836214066,41.8395925569534,-0.889133459329605,41.9242981415516
6.78592012501031,-1.86869483962655,42.3391926956177,9.70288544118404,43.476950725701
6.79585012501048,-4.53010606080294,31.2511995148659,8.26283024668694,32.6409818437749
6.80578012501064,-3.99786822617054,22.5118410730362,5.09195594966412,23.4242172600235
6.81571012501081,-2.4186029599607,19.100175511837,7.00773593187332,20.4884042265809
6.82564012501098,-1.21365129679441,13.3905214548111,6.6231552028656,14.9881686387368
6.83557012501115,0.0400179053843021,7.43304661095142,2.06863964796066,7.71563693718429
6.84550012501131,1.11604577243328,3.49100292205811,-1.16136344790459,3.84466183507903
6.85543012501148,1.59870901241899,1.58304242134094,-1.38465224146843,2.64180916115419
6.86536012501165,1.22755275964737,0.703357477784157,-1.30001905739307,1.92136593829961
6.87529112500488,0.742972290739417,-1.19896162927151,-0.281500127725303,1.43831816201469
6.88522112500505,0.43000014603138,-3.82939064741135,0.861913501024246,3.94867417487394
6.89515112500521,0.32673265311867,-7.04714733481407,1.9974462890625,7.33204142533855
6.90508112500538,-0.106105183213949,-9.5013243162632,3.1812186062336,10.0203080737753
6.91501112500555,-0.754803619980812,-10.6879921746254,2.89770056784153,11.0995303418865
6.92494112500572,-0.97499806702137,-12.3785906195641,1.66928768277168,12.5286331387469
6.93487112500588,-0.58186490803957,-14.4792227232456,0.962116066217423,14.5228139410182
6.94480112500605,0.564610651731491,-16.4662235462666,0.219154812097549,16.4773581588596
6.95473112500622,1.78294732242823,-17.7977947640419,-0.972903009653092,17.9133173891299
6.96466112500639,2.19092100709677,-18.0297584867477,-1.54177978992462,18.2277099732909
6.97459112500656,1.32648998737335,-15.8245348978043,-1.56158898711205,15.9566299882869
6.98452212501434,0.178206760883331,-12.0285786294937,-1.38689757227898,12.1095807677859
6.99445212499995,-0.582738482058048,-9.35885573744774,-1.4088082587719,9.48222049747915
7.00438212500012,-0.491675992012024,-8.13296709537506,-0.688026663064957,8.17681354469226
7.01431212500029,-0.110236387252808,-7.02019634842873,0.407456206083298,7.03287490230292
7.02424212500046,0.0211724663805217,-5.70362616240978,0.792641537189484,5.75847899017927
7.03417212500062,0.261629297230393,-5.00036224007607,0.523882455825806,5.03453327019197
7.04410212500079,0.568865049295127,-5.50405426025391,0.118548789024353,5.53464312846889
7.05403212500096,0.555532885976136,-6.94006961345673,-0.104537690877914,6.96305329261815
7.06396212500113,0.40662063896656,-8.50725789427757,0.136952900290489,8.51807098589109
7.07389212500129,0.171423406004906,-9.57719720184803,0.174011968374252,9.58031170642947
7.08382212500146,-0.0410503043979406,-9.77865775465965,-0.974900418519974,9.8272205346317
7.09375312500924,-0.101161216199398,-8.74657390594483,-2.69062551856041,9.15162577714727
7.10368312500941,-0.386020167320967,-6.76354392707348,-2.73429427921772,7.30553921544425
7.11361312500958,-1.10354062467814,-4.60944488346577,-0.77559397995472,4.802741932039
7.12354312500975,-0.831568936854601,-2.76429458856583,2.68125126242638,3.93978930926247
7.13347312500991,0.47643442042172,-0.887803217768669,10.2537405180931,10.3031247164551
7.14340312501008,1.14055028378963,2.97204499125481,-1.09121849477291,3.36521383915344
7.15333312501025,1.50673830360174,6.97180245280266,-0.378824072107673,7.14281439168442
7.16326312501042,2.53377658993006,12.6538798713684,-2.07662460565567,13.0710775898361
7.17319312501058,3.48647249937058,20.8184266090393,-5.49289484918118,21.811333539905
7.18312312501075,3.12194245755672,28.2096042323113,1.1614456012845,28.4055848652456
7.19305312501092,2.71482188165188,30.7128183031082,8.34983798503876,31.9431880116126
7.20298312501109,2.85844674736261,26.7582668352127,2.80702896416187,27.056514436224
7.21291412500432,2.50207591027021,20.0328321361542,1.99192403241992,20.28651050839
7.22284412500449,1.451827686131,15.0297836852074,4.82525391876698,15.851980211788
7.23277412500465,0.420192245766521,11.6264375424385,2.37093894302845,11.8731614544398
7.24270412500482,-0.637391529679299,9.2293504357338,0.473283575177193,9.26343212692893
7.25263412500499,-2.06685171559453,7.45501050710678,-0.342850247249007,7.7438106877278
7.26256412500516,-3.51104542315006,5.64479323267937,-1.56919329106808,6.83033660867888
7.27249412500532,-4.34759253323078,3.69102330565453,-2.3270117354393,6.15956146935487
7.28242412500549,-4.32860282331705,1.94810105144978,-2.32229303240776,5.2844058357641
7.29235412500566,-3.60444679945707,0.247510299682617,-2.29193487346172,4.27858195466154
7.30228412500583,-2.46843073904514,-1.61557106673718,-2.35177703261375,3.77280736273015
7.31221412500599,-1.0169788827002,-3.09926110804081,-2.42464561879635,4.06430459493636
7.32214512501378,0.331302654147148,-4.40967885375023,-2.21184848427773,4.94442137759906
7.33207512501394,1.18040256679058,-6.00711770474911,-1.70796642959118,6.35578182940592
7.34200512501411,1.30205666586757,-7.74140128254891,-1.20853110931814,7.94261876340352
7.35193458333379,0.910337071269751,-9.44169850409031,-0.799764542207122,9.51913901298016
7.36186458333395,0.41783340588212,-11.0988409352303,-0.689394911527634,11.1280780103598
7.37179458333412,0.11663938075304,-12.4235486912727,-0.884779037833214,12.4555610381611
7.38172458333429,-0.0475980895757675,-13.0772229623795,-0.979470017552376,13.1139386723135
7.39165458333446,-0.226259763836861,-13.3476543474197,-0.913186565637589,13.3807690273237
7.40158458333463,-0.408194417059422,-13.5989957427979,-0.982329963818193,13.6405381144795
7.41151458333479,-0.682002861499786,-14.017401444912,-1.01782248973846,14.0708433930426
7.42144558334257,-0.967076259255409,-14.1079373931885,-0.733759563937783,14.1600683995174
7.43137558334274,-1.24118159607053,-13.0574009013176,-0.515243267789483,13.1263751918478
7.44130558334291,-1.54027690932155,-10.9466285562515,-0.930671421512961,11.0935692633503
7.45123558334308,-1.72739453449845,-8.91907027602196,-1.53439884960651,9.21347308543892
7.46116558334325,-1.62736855521798,-7.31630753517151,-1.92458998203278,7.73826407940829
7.47109558334341,-1.38075039446354,-6.3225486767292,-2.2247468572855,6.84328809859874
7.48102558334358,-1.06173800289631,-6.11055962741375,-1.95834961250424,6.50394955021706
7.49095558334375,-0.626787896454334,-6.60455111682415,-1.38424293637276,6.7771001932082
7.50088558334392,-0.159137675017118,-7.01537005662918,-1.63510135173798,7.20515775410327
7.51081558334408,0.247344677299261,-6.9162813860178,-2.12058221876621,7.23830066704278
7.52074558334425,0.440282036215067,-6.28273615479469,-1.18766473554075,6.40914732130766
7.53067658333748,0.396845702379942,-5.46285477876663,1.19663268327713,5.60644259973095
7.54060658333765,0.398357353806496,-4.28519338667393,3.40407996833324,5.48719704159905
7.55053658333782,0.796728887110949,-2.08573164403439,4.12584565043449,4.69123179364361
7.56046658333798,1.69112922593951,1.99310122311115,2.62014259636402,3.70101577538858
7.57039658333815,2.70417702555656,7.41634462416172,2.34831431150436,8.23585581925137
7.58032658333832,3.97058541029692,14.0562023985386,-0.517981372699142,14.6154260653464
7.59025658333849,5.62587807476521,23.6417219424248,-3.10574859380722,24.4995345842118
7.60018658333866,7.41054652512074,35.0607704401016,-0.571761284843087,35.8399321235592
7.61011658333882,7.42781510710716,40.8538315200806,-1.11706150688231,41.5386063024105
7.62004658333899,5.22424160242081,37.7871820878983,-3.57309256732464,38.313585331565
7.62997658333916,1.55516728252172,27.5489320135117,1.31116385042667,27.6239271466672
7.63990758334694,-1.14926906704903,20.5306968212128,1.54601434350014,20.6208751439734
7.64983758334711,-3.06804896324873,14.8585245859623,0.171517399996519,15.1729395810779
7.65976758334728,-4.79598626554012,9.10922816097737,2.18467471897602,10.5238930807817
7.66969758334744,-6.2937125480175,4.32836221039295,3.737189412117,8.50365343622788
7.67962758334761,-6.98007509350777,1.55094880878925,3.31907607078552,7.88309307836419
7.68955758333323,-6.40980433702469,0.595755261182785,2.81598163604736,7.02639797796307
7.69948758333339,-4.5204306730628,0.714456077814102,2.66457149505615,5.29572301101165
7.70941758333356,-2.12606719940901,1.15044669628143,3.10752030014992,3.93705114943044
7.71934758333373,-0.101092219054699,0.758276281356812,3.21567332446575,3.3054133607315
7.7292775833339,1.24321043372154,-1.11127269029617,2.3280835300684,2.8636466433008
7.73920858334168,1.87486730664969,-3.80424177289009,1.59210092782974,4.53013998112002
7.74913858334185,1.98064753085375,-6.56547709822655,1.90137375846505,7.11643705362409
7.75906858334201,1.80300853461027,-9.12115180313587,2.99892756521702,9.76933040352023
7.76899858334218,1.61711414694786,-11.5142528629303,3.26530039787293,12.077055263768
7.77892858334235,1.59450296401978,-13.3127932476997,1.46302305757999,13.4875253558716
7.78885858334252,1.37282858669758,-14.9098760032654,-1.00440356835723,15.0065947932678
7.79878858334268,1.04084940969944,-16.5790385556221,-2.27071006536484,16.7661567189212
7.80871858334285,0.810190712437034,-17.990400878191,-3.19282182097435,18.2894790502361
7.81864858334302,0.811419577896595,-18.0316740345955,-4.56544692456722,18.6183505134676
7.82857858334319,0.883551999628544,-16.1355202317238,-6.2494345074892,17.3260240374938
7.83850958333642,0.453970221877098,-12.0788869035244,-7.4843611907959,14.2169356833593
7.84843958333659,-0.402304516732693,-8.69423255503178,-6.28384186327457,10.7349055518807
7.85836958333675,-0.940287240743637,-7.32015149474144,-3.74398270726204,8.27563680409839
7.86829958333692,-1.50391936093569,-6.68116659879685,-1.62928863465786,7.03948449959946
7.87822958333709,-2.20346825480461,-6.64816491365433,-0.428271635994315,7.01689287813868
7.88815958333726,-2.95772808372974,-7.57812831044197,-0.219980365857482,8.13784833160268
7.89808958333742,-3.58515449613333,-9.10137827396393,-0.49696881853044,9.7946616712125
7.90801958333759,-3.85761486500502,-10.436934953928,-0.820830379128456,11.1572651752359
7.91794958333776,-3.69475032091141,-11.325471997261,-1.30874778091908,11.9845866281937
7.92787958333793,-2.94388509303331,-11.5470276761055,-1.63268060445786,12.0277160570868
7.93781058334571,-1.87916851848364,-10.4768129646778,-1.2363113039732,10.7155657740519
7.94774058334588,-0.881809237003327,-8.06206258893013,-0.920254899188876,8.16218780706327
7.95767058334604,0.141663417220116,-4.80963892936707,-0.0216920006275177,4.81177365402331
7.96760058334621,1.17517281711102,-1.2456726962328,2.60561460435391,3.11800562581899
7.97753058334638,2.14440231353045,2.46924934923649,5.48434563517571,6.38542877785434
7.98746058334655,2.79002350687981,6.71911035060883,4.49601650118828,8.55247563291225
7.99739058334671,3.17718987464905,11.1150809919834,0.856684336066246,11.5919570828046
8.00732058334688,3.58148829191923,14.9406908297539,-1.50010142147541,15.4370206040595
8.01725058334705,4.00534564554691,17.8903351378441,-2.70876825928688,18.5322505532167
8.02718058334722,4.09932560384274,19.5738526046276,-3.27275676727295,20.2645284438533
8.03711158334045,3.32845325052738,19.1703093552589,0.76652604483068,19.4722090168188
8.04704158334062,2.32325782299042,19.2631233787537,-0.664235512018204,19.4140840121958
8.05697158334078,0.285148242115974,19.3310352802277,-0.513380856513977,19.3399533202442
8.06690158334095,-2.69743986368179,17.7417386770248,2.60703606247902,18.1340042498364
8.07683158334112,-5.04074954330921,15.2242632472515,3.66155216932297,16.4497511126661
8.08676158334129,-6.27777128398418,11.8701670324802,2.82815261542797,13.7225990573633
8.09669158334145,-6.55493164479733,8.61604592621326,2.66035916090012,11.1481337960919
8.10662158334162,-6.22535684287548,6.64882097125053,1.72902620002627,9.27099885283429
8.11655158334179,-4.86568186014891,5.52937621235848,0.462521701678634,7.37989075708452
8.12648158334196,-2.41441269904375,4.96592564821243,0.107079475522041,5.52279569049552
8.13641258333519,0.161641891300678,4.78720842540264,-0.191544259786606,4.79376488917912
8.14634258333535,2.25255826145411,4.09681188583374,-0.677452046647668,4.72406896908384
8.15627258333552,3.57230816334486,2.80547945201397,-0.661054626703262,4.59010825461216
8.16620258333569,4.01853345572949,0.973234546780586,-0.441675354614854,4.15822963973114
8.17613258333586,3.59413552701473,-1.21591855466366,-0.0351351879537106,3.79440411653231
8.18606258333603,2.91758957952261,-3.17141107141972,0.642792602777481,4.35698972556144
8.19599258333619,2.22108094543219,-4.99608909487724,1.11162352323532,5.57940979562564
8.20592258333636,1.60119568705559,-6.80759626507759,1.59354299739003,7.17262670303388
8.21585258333653,1.05799490779638,-8.89124220728874,1.91278328418732,9.15599700228557
8.22578358334431,0.433121389746666,-11.4609566617012,1.46064148664475,11.5617730168066
8.23571358334448,-0.340433373749256,-14.1938926327229,0.507907277941704,14.2070564422829
8.24564358334465,-1.16453439295292,-16.2869362199307,-0.735961552262306,16.3450931839151
8.25557358334481,-1.96944426566362,-17.2289811336994,-1.9940274220705,17.4554474872716
8.26550358334498,-2.64370102822781,-16.6456804418564,-3.35888508439064,17.185748209176
8.27543358334515,-2.75856724083424,-14.5242030143738,-5.07087030529976,15.6293279471038
8.28536358334532,-1.83845611006022,-11.8795354413986,-5.82750351905823,13.359007464505
8.29529358334548,-0.709714570641518,-9.23557830512524,-4.1077134346962,10.1327642360545
8.30522358334565,0.00247953006997705,-7.09991494774819,-2.32829461455345,7.47193109078812
8.31515458333888,0.584963055253029,-5.81023259818554,-1.14043173149228,5.94992177723568
8.32508458333905,1.05824516862631,-5.46933758676052,-0.352845550775528,5.58193841398975
8.33501458333922,1.4065234592557,-5.95202348470688,0.119366668313742,6.11711861953348
8.34494470834034,1.64308397054672,-6.8119588726759,0.264930032193661,7.01232461736146
8.3548747083405,1.78609750986099,-7.80846943080425,0.277424508780241,8.01494251536517
8.36480470834067,1.87938983559608,-8.78490065038204,0.372785067781806,8.9914155892154
8.37473470834084,1.91280228763819,-9.35215248942375,0.1800210057199,9.54745915621162
8.38466470834101,1.71107247054577,-9.10786751389504,-0.157256771922112,9.26853544754723
8.39459470834117,1.22709784626961,-8.16948003351688,-0.435179609656334,8.27257846351494
8.4045257083344,0.720438948869705,-6.3692293381691,-1.05855470560491,6.49666473707862
8.41445570833457,0.25455414801836,-3.18003279089928,-1.40928071379662,3.48761788270262
8.42438570833474,0.185241874940693,0.110123535990715,0.296847972460091,0.36682484125848
8.43431570833491,0.642591750919819,3.05541693091393,3.55297171354294,4.72991593765702
8.44424570833508,1.81841477841139,6.5890764605999,1.01510528862476,6.91035452469485
8.45417570833524,2.54248601764441,12.0180442857742,-2.54324878692627,12.54455013131
8.46410570833541,1.92450227379799,18.2197988426685,-1.70661981582642,18.4004709196512
8.47403570833558,0.550886359512806,24.2245934486389,-0.761228540539742,24.2428107368735
8.48396570833575,-1.1326381239295,29.5400212097168,0.26911758877337,29.5629522623652
8.49389570833591,-3.06711545526981,32.4593137907982,1.8147365874052,32.6543644535784
8.5038267083437,-4.62713826566935,31.8441609764099,1.81672405600548,32.229822883733
8.51375670834386,-5.45743148624897,27.4853985071182,3.27305088222027,28.2124715613468
8.52368670834403,-4.83877677440643,20.5949928045273,4.0936157977581,21.5482059483086
8.5336167083442,-2.95095876216888,15.5670235204697,3.77945717990398,16.2887898714915
8.54354670834437,-1.06618188679218,12.1190958666801,3.47986631512642,12.6538017217222
8.55347670834453,0.115032858252525,9.55903399586678,2.73604142725468,9.94355500735367
8.5634067083447,0.637223714590073,7.56910137891769,2.13939621984959,7.89141089617544
8.57333670834487,1.01325844556093,5.43573422312737,1.65950178265572,5.77302740237877
8.58326670834504,1.27093968451023,3.13523844122887,1.0598066675663,3.54516543163223
8.59319770833827,1.01313419222832,1.34589923501015,0.408656054735184,1.73346053123074
8.60312770833843,0.228678464591503,-0.155728894472122,0.756156080961227,0.805181561833155
8.6130577083386,-0.615130594968796,-2.53672855675221,1.98543318450451,3.27953081242432
8.62298770833877,-1.29673701524735,-5.6823592543602,2.79277462184429,6.46299649317119
8.63291770833894,-1.75138200581074,-8.88720119655132,2.10994730293751,9.30062157382151
8.6428477083391,-1.93032814711332,-12.2356028079987,1.04028222978115,12.4305402114406
8.65277770833927,-1.82056889265776,-15.4803654456139,-0.124043408436701,15.5875454190147
8.66270770833944,-1.3588619273901,-17.5120389962196,-1.36181711018086,17.6173937171311
8.67263870834722,-0.816998333260417,-18.1471834409237,-1.82469731926918,18.2569787594233
8.68256870834739,-0.179946380630136,-17.9718149185181,-1.84315113186836,18.0669786699458
8.69249870834756,0.704302387833595,-17.0080721569061,-1.43673046767712,17.0831716839932
8.70242870833317,1.59315693497658,-15.3099530231953,-0.60129257440567,15.4043618287791
8.71235870833334,2.26379865646362,-12.3090485143662,0.0290542298555374,12.5155225154325
8.72228870833351,2.28660192042589,-8.91805286049843,0.103790416717529,9.20711614001594
8.73221870833368,1.65523243814707,-6.61044335603714,0.279537838697434,6.82025638747793
8.74214870833384,0.625861916765571,-5.72964276373386,0.327238254547119,5.77300564819612
8.75207870833401,-0.203780801072717,-6.05353465676308,-0.132076898021624,6.05840348297375
8.76200970834179,-0.671365972235799,-7.18571114301682,-0.716334203481674,7.25246934434265
8.77193970834196,-0.987592311725021,-8.66357267975807,-0.921406581401825,8.76822788480543
8.78186970834213,-0.983653992712498,-10.1032191538811,-0.801134033203125,10.1825550913258
8.7917997083423,-0.690094677060843,-11.101644090414,-0.542848484516144,11.1363107289027
8.80172970834246,-0.390245803892613,-11.3065585935116,-0.468228657245636,11.3229765120057
8.81165970834263,-0.137825743407011,-10.2990283727646,-0.858943700194359,10.3357034418882
8.8215897083428,0.190265473723412,-8.26489314436913,-0.493877468705177,8.28182193677367
8.83151970834297,0.569487960487604,-5.46847629189491,0.881161365509033,5.56821289501603
8.8414507083362,0.900667092204094,-2.12899109959602,2.74799956798553,3.59100347239976
8.85138070833636,1.40889435902238,1.54670022189617,2.73588238298893,3.44417149759531
8.86131070833653,2.24126933455467,5.16075545847416,3.78959098935127,6.7836336132458
8.8712407083367,2.76028983056545,8.4175253534317,3.69161855220795,9.59697767838367
8.88117070833687,3.06676345288754,12.1865961241722,-6.09081416487694,13.9648193816004
8.89110070833704,3.48190903991461,16.6712561631203,-3.56700152277947,17.4005164429716
8.9010307083372,3.5864169099927,22.9354110360146,-3.99560301482678,23.5554730178639
8.91096070833737,2.84808811247349,28.5614990258217,0.0658676417917013,28.7032257951029
8.92089070833754,2.27597928375006,29.6857361626625,5.01207889080048,30.1917861019661
8.93082170834532,2.15159643530846,22.8405247592926,3.89793989539146,23.270429173704
8.94075170834549,2.30598763301969,14.5468036723137,2.50200369715691,14.9394477322646
8.95068170834566,1.99784813895822,9.39570372104645,1.99817382887006,9.81138849757801
8.96061170834582,0.91605535581708,6.47271219134331,0.868910352364183,6.59470740270795
8.97054170834599,-0.730515163242817,5.49532202839851,-0.378997807502747,5.55660471309788
8.98047170834616,-2.40701480180025,5.52797521948815,-1.79924497425556,6.29201976798742
8.99040170834633,-3.54442279189825,5.46236010432243,-3.29053171813488,7.2957460088104
9.00033170834649,-3.49076377093792,4.58554322004318,-4.11807528555393,7.08316189175899
9.01026270833972,-2.63731762290001,2.8650321739912,-3.39842863440514,5.16847857548123
9.02019270833989,-1.94183663696051,0.815261490941048,-1.52427264153957,2.59976689512724
9.03012270834006,-1.30110590860248,-1.21839134216309,0.0237963404506445,1.78267223961027
9.04005270834023,-0.634922835230827,-3.03768232584,1.30043479442596,3.36478403080672
9.04998270834039,-0.158389669954777,-4.80865893602371,1.97239038527012,5.19986652544612
9.05991270834056,-0.0886480285227299,-6.4023760342598,2.23061863124371,6.78040830887615
9.06984270834073,-0.366957951933146,-7.83982278585434,2.29039179325104,8.17577971930993
9.0797727083409,-0.768334077000618,-9.26055351734162,2.1196115809679,9.53105146117687
9.08970270834107,-1.0550047878921,-10.6887675154209,1.58081814050674,10.8564161717644
9.0996337083343,-0.955539848953486,-11.9884784245491,0.467521801963449,12.0355825772635
9.10956370833446,-0.413673404306173,-13.0692192935944,-1.24877464413643,13.1352600560981
9.11949370833463,0.415704434663057,-14.1639408552647,-3.0873509144783,14.5024744922225
9.1294237083348,1.52726860865951,-15.7980996358395,-5.11357544481754,16.6751658263643
9.13935370833497,2.16757629096508,-16.8030219984055,-5.73718274831772,17.887291610069
9.14928370833513,1.74182005405426,-16.256604373455,-4.26428608238697,16.8966049444314
9.1592137083353,0.590252007991076,-13.7929502248764,-2.67028890252113,14.0614478686152
9.16914370833547,-0.681312597692013,-10.6311116302013,-1.98150560975075,10.83563961338
9.17907470834325,-1.66184476196766,-8.23994132101536,-1.39345697879791,8.52056825208368
9.18900470834342,-2.3875239855051,-6.60944114327431,-0.513137612342835,7.04615449851692
9.19893470834359,-2.7178045463562,-5.5499256670475,-0.118938250131905,6.18079952508505
9.20886470834375,-2.57889692187309,-4.84624132990837,-0.604700989499688,5.52290029314856
9.21879470834392,-2.21015308409929,-4.27551975309849,-0.847767332196236,4.88708044376477
9.22872470834409,-1.84476291686296,-3.91496698737144,-0.459799311161041,4.3521870522974
9.23865470834426,-1.3839242631197,-3.89986538350582,0.0595644164085388,4.13856790390353
9.24858470834442,-0.74255077958107,-3.75035851120949,0.0303663450479507,3.82328297903379
9.25851570833765,0.0136512020230293,-2.97987850606442,-0.119587839245796,2.98230842092444
9.26844570833782,0.74537483856082,-1.6369046330452,0.856518859863281,1.9921508439237
9.27837570833799,1.37327443689108,0.10584337413311,1.55982663631439,2.08089995776401
9.28830570833816,1.80321698784828,2.38318593621254,0.854475915804505,3.10826250540649
9.29823570833833,1.95946014493704,5.30232882857323,-0.279207397922874,5.6596936168816
9.30816570833849,1.8544584774971,8.82466990292072,1.00082887306809,9.07278753049152
9.31809570833866,1.68994852691889,13.1804543852806,2.03839609444141,13.4437852729033
9.32802570833883,1.68186416655779,17.862248622179,1.40516939029098,17.9961966518123
9.33795670834661,1.47730985194445,20.8345134687424,2.04277551278472,20.9864796398418
9.34789008334337,1.1312012437731,20.3087107872963,3.91414603829384,20.7133746479189
9.35782008334354,1.00876544505358,16.0898113775253,6.69155359268189,17.4549857453741
9.36775008334371,0.897906329333782,11.909067388773,6.43089641332626,13.5642379264567
9.37768008334388,0.514946156144142,10.4380927026272,3.12727044045925,10.9086557017873
9.38761008334404,-0.871297697424889,10.583799469471,3.87497495591641,11.3044859147372
9.39754008334421,-2.68351588904858,10.5536722755432,5.73726987183094,12.3084329469094
9.40747008334438,-3.90316789090633,10.5091422200203,3.53693163156509,11.7552828614024
9.41740108333761,-4.40832200735807,10.2494872534275,0.849370784908533,11.1895809845135
9.42733108333778,-4.17459505677223,9.41445457220078,-0.357075572758913,10.3046931902275
9.43726108333794,-3.26651369512081,8.25327180325985,-2.26610932990909,9.16088743921663
9.44719108333811,-1.86624383300543,6.81960001409054,-3.45862922787666,7.87095461378969
9.45712108333828,-0.262709588594735,4.89876511394978,-3.55181221067905,6.05659029070977
9.46705108333845,1.18210089057684,2.45379749715328,-3.14674517691135,4.16178926436132
9.47698108333862,2.09216270416975,-0.222413465380669,-1.92556792885065,2.85209122906679
9.48691108333878,2.62477914601564,-2.78330564081669,-0.680908262729645,3.8858579384499
9.49684208334656,3.04169029980898,-5.11713932275772,-0.258499556779862,5.95850792978584
9.50677208334673,3.1124956959486,-6.79889911651611,0.271634595841169,7.48240897088097
9.5167020833469,2.65311563014984,-7.69844705164433,1.451871394068,8.27121757051703
9.52663208334707,1.74208200931549,-7.91326615333557,2.33922715365887,8.43365962184401
9.53656208334724,0.509828088283539,-7.90601326704025,2.40215298816562,8.278605524892
9.5464920833474,-0.770662145912647,-7.99213690638542,2.20073000371456,8.32534594012766
9.55642208334757,-1.92483498036861,-8.49311289489269,1.99491327524185,8.93407159825683
9.56635208333319,-2.8044325080514,-9.5536025172472,1.63568841218948,10.0901753865599
9.57628308334097,-3.27816427230835,-11.0201175320148,1.06138380780816,11.5462499108211
9.58621308334114,-3.2096071305871,-12.324219700098,-0.0532605332136154,12.735415416601
9.5961430833413,-2.44175749540329,-12.9959396481514,-2.07297667399049,13.3848369170364
9.60607308334147,-0.870516509413719,-12.9940942668915,-5.68735803902149,14.2109227805251
9.61600308334164,0.777631734609604,-12.1554561924934,-9.48793068408966,15.4395807918605
9.62593308334181,1.08514703840017,-10.535585668087,-8.79741018354893,13.7684616207534
9.63586308334197,0.256324977278709,-9.24340538799763,-5.94597570955753,10.9936742174529
9.6457940833352,-0.664413559734821,-8.78556898713112,-3.98710525631905,9.67081569108659
9.65572408333537,-1.4337241217494,-8.78170280814171,-2.4574952763319,9.23109701503585
9.66565408333554,-1.87222027212381,-8.78848440885544,-1.32607834339142,9.08301440739021
9.67558408333571,-2.25559793651104,-8.38312559902668,-0.84162030056119,8.72197463826661
9.68551408333588,-2.61292274683714,-7.37245074570179,-1.12723113052547,7.90259737683526
9.69544408333604,-2.57087688088417,-5.57116684734821,-0.995289147868753,6.21593986984445
9.70537408333621,-2.03854256719351,-3.11806399941444,0.95964386343956,3.84693322626498
9.71530408333638,-1.02938492015004,-0.223263065814972,3.35861143469811,3.51990773738095
9.72523508334416,0.280450004339218,3.2886705493927,4.15610791504383,5.30728171372754
9.73516508334433,1.76408245056868,7.52040108919144,2.06031774446368,7.99458120497053
9.7450950833445,3.40665625154972,12.0516458952427,0.796038623303175,12.5491494966923
9.75502508334466,5.06792096972466,15.7179939508438,2.15768557950854,16.655172285334
9.76495508334483,6.762576212883,18.520531668663,0.825678305625916,19.7338357900683
9.774885083345,7.07208921790123,19.2808918976784,2.18590789675713,20.6529763377829
9.78481508334517,5.71944580435753,18.6518016600609,0.771471692919731,19.5242652626983
9.79474508334533,2.55657342195511,16.8925253283978,4.92516353845596,17.7806275342841
9.80467608333856,-1.14778533607721,14.7822266077995,6.53162055015564,16.2016573742709
9.81460608333873,-3.92391995161772,13.6043517923355,3.77648445546627,14.653919964252
9.8245360833389,-6.11405743181706,12.1814119827747,3.67605443358421,14.1167231456992
9.83446608333907,-7.45660913586617,10.5744298911095,3.49362890660763,13.4024262827354
9.84439608333923,-7.53174819588661,8.55456186890602,2.30795273602009,11.6290328697998
9.8543260833394,-5.95231116771698,6.27227548599243,1.35284104943275,8.75223553810912
9.86425608333957,-3.29458237677813,4.2172803157568,0.198462831526995,5.35528839508616
9.87418708334735,-0.867444674670696,2.77147146105766,-0.850067626833916,3.02590966376439
9.88411708334752,0.933070607185364,1.53374688506126,-1.80892211616039,2.54856812499933
9.89404708333314,2.25084502726793,0.288353685736656,-2.02570412814617,3.04186265298799
9.9039770833333,3.00465695947409,-0.962124252319336,-1.70406092807651,3.5857314689773
9.91390708333347,3.11235331624746,-1.83012061178684,-0.770559527277947,3.69186221356139
9.92383708333364,2.91094772726297,-2.54733365178108,0.545919442176819,3.90647583400953
9.93376708333381,2.75109391450882,-3.69710967242718,1.418706279248,4.82181139854928
9.94369708333397,2.61601680099964,-5.27190518081188,1.87793943375349,6.1776358467807
9.95362808334176,2.37746531277895,-7.15510506212711,2.17184680491686,7.84632323496628
9.96355808334192,1.89870435833931,-9.48636304557324,1.99471841678023,9.87800909267836
9.97348808334209,1.13691448509693,-11.9950366616249,1.43516136735678,12.1339674966806
9.98341808334226,0.222128705978394,-14.220079972744,0.701268852353096,14.2390938474516
9.99334808334243,-0.832871550321579,-15.6546487247944,-0.304586579650641,15.6797472779552
10.0032780833426,-1.86459930360317,-15.6233918488026,-1.21778615534306,15.7813214448085
10.0132080833428,-2.68225727587938,-13.9401059317589,-2.37113847926259,14.3924756442562
10.023139083336,-3.18416443347931,-11.4204307794571,-4.26928896009922,12.6012686088596
10.0330690833362,-2.95496088892221,-9.17233365118504,-6.72391149938107,11.7505099597945
10.0429990833363,-1.75972072005272,-7.91197976589203,-7.82215191543102,11.2641955512388
10.0529290833365,-0.845744195580483,-7.38047721862793,-5.36225050985813,9.16190251800999
10.0628590833367,-0.315368150956929,-7.39999756336212,-3.29181635141373,8.10527457276051
10.0727890833368,0.328512362837791,-7.77731546580792,-2.88519395828247,8.30174080564685
10.082719083337,0.982489812076092,-7.98185340821743,-2.89536343574524,8.54742063351021
10.0926500833448,1.49090638250113,-8.31028858780861,-2.28655879721046,8.7471166327622
10.1025800833449,1.76243207395077,-8.73270431041718,-1.4905653436482,9.03261182782445
10.1125100833451,1.89569011867046,-8.97278338372708,-0.822834073752165,9.20768910151951
10.1224400833453,1.84185538887978,-8.88372619628906,-0.265712243467569,9.07654259068433
10.1323700833455,1.59833289027214,-8.02148642063141,-0.458232403546572,8.19200154786117
10.1423000833456,1.33221879690886,-5.70410387992859,-1.47749681666493,6.04107646360387
10.1522300833458,1.21924649745226,-2.43185172736645,-0.466582081317902,2.76010211478701
10.162161083339,1.25513963073492,0.511025013327599,2.84696837067604,3.1530542273354
10.1720910833392,1.34302620559931,3.44274292767048,1.72591606602073,4.07860080443037
10.1820210833394,1.37379191547632,7.52606353282929,-1.05471900522709,7.72278244593218
10.1919510833395,1.08004563510418,12.733169285059,3.03159771323204,13.1335708514764
10.2018810833397,0.936009710133076,20.4012862443924,0.504469042047858,20.4289765680389
10.2118110833399,0.750805878639221,30.4207124590874,-3.41838225781918,30.621378042904
10.22174108334,-0.261257414314896,35.1238338303566,2.38752793237567,35.205855308555
10.2316710833402,-1.86860698521137,29.4940153169632,5.40098071217537,30.0426234579427
10.2416020833334,-2.03164753049612,20.6998123311997,3.63025845587254,21.1137064176684
10.2515320833336,-1.77497552096844,15.3897195696831,3.74991002976894,15.9391289525145
10.2614620833338,-2.29515113443136,11.9789357686043,4.4513344180584,12.9837205368731
10.2713920833339,-2.81001338303089,10.1625929510593,4.2402680593729,11.3646092725211
10.2813220833341,-2.47826984882355,10.0240572094917,2.85058955132961,10.7121148786269
10.2912520833343,-1.36095786184073,10.6716328346729,1.88651408314705,10.9222199687466
10.3011820833344,-0.399409267902374,10.1318307495117,1.57062527418137,10.2606230732804
10.3111130833422,0.22350133985281,8.02997716248036,1.36211648762226,8.14775106423389
10.3210430833424,0.825959556698799,5.71464465558529,1.01572801709175,5.86268506177986
10.3309730833425,1.34687016516924,3.38224471092224,1.04500846110284,3.78756930103741
10.3409030833427,1.49440097093582,0.732485967278481,1.65598175883293,2.34777459305216
10.3508337083476,1.27242999359965,-2.32048390388489,2.88344067066908,3.91381575167629
10.3607637083333,0.826702153086662,-5.83389218688011,3.68890135109425,6.95167085499335
10.3706937083334,0.214291536659002,-9.37441985607147,2.47497260391712,9.69799762274311
10.3806247083412,-0.43158890761435,-12.6244496655464,0.627621343955398,12.6474071214016
10.3905547083414,-0.90752178311348,-15.2387491393089,-0.808156539201737,15.2871249131244
10.4004847083415,-1.13770605191588,-16.9714124536514,-2.15251854121685,17.1451611775102
10.4104147083417,-1.17916982755065,-17.8639712119102,-3.57641320109367,18.2565780015621
10.4203447083419,-0.961832476258278,-18.0912150621414,-4.59316857397556,18.6899540311365
10.430274708342,-0.496915389597416,-17.7254366397858,-5.1884081107378,18.4758655466814
10.4402047083422,-0.128214528858662,-16.1578612732887,-4.70958020567894,16.8307179171293
10.4501357083354,0.00985811322927475,-13.3775570082665,-3.52961325645447,13.8353640512982
10.4600657083356,0.191303793042898,-10.4862538790703,-2.77246724188328,10.8482575635383
10.4699957083358,0.365755472034216,-8.11989213645458,-2.2157421451807,8.42472187237715
10.4799257083359,0.572587350234389,-6.44867779612541,-1.74086403429508,6.70402186584975
10.4898557083361,0.723455454334617,-5.75597394526005,-1.46288740217686,5.98286414724309
10.4997857083363,0.795726235806942,-5.84276709079743,-0.854686342477799,5.95832159787259
10.5097157083364,0.637170066386461,-6.33357711017132,-0.702968564853072,6.40424464766584
10.5196467083442,0.27555646955967,-6.85274554073811,-1.66437368273735,7.05735025132031
10.5295767083444,-0.0889224091172218,-6.66428451776505,-1.89972762107849,6.93033623735924
10.5395067083446,-0.344415108337998,-5.40281089067459,-1.19633688725531,5.54438537937716
10.5494367083447,-0.373780044615269,-3.28606736898422,0.826737236380577,3.40902401476928
10.5593667083449,0.102850184440613,-1.22492326676846,4.37793431997299,4.54723257376479
10.5692967083451,0.828796918094158,-0.00915323138237,8.92765749692917,8.96605021710021
10.5792267083452,1.49650143697858,2.92255298852921,-1.86668734431267,3.77695037868609
10.5891567083454,2.40107826992869,9.16494101643562,-4.47844854176045,10.479399889033
10.5990877083386,3.17672999113798,17.9051332712174,-3.38204005837441,18.4965836265268
10.6090177083388,2.77252542167902,26.9013482022285,-4.01546542167664,27.3403254344948
10.618947708339,0.230458064675331,30.7392640900612,0.487368932962418,30.7439912209673
10.6288777083391,-2.24827459126711,24.5858812093735,4.00585844635963,25.0113413349111
10.6388077083393,-2.32376302242279,15.8907628011704,4.61635336875916,16.7100848415767
10.6487377083395,-1.17901129491627,10.4684689879417,5.07264084219933,11.6923306358906
10.6586677083396,0.206451589912176,6.99348743677139,5.89432433009148,9.14847244601879
10.6685987083474,1.27766632139683,4.56894472897053,4.93962253332138,6.84890925161924
10.6785287083476,1.93275561869144,3.11516494989395,2.96676437079906,4.71608818603659
10.6884587083332,2.15567355260253,2.51766546428204,1.12037329673767,3.49868606472077
10.6983887083334,2.15174583166838,2.52969201743603,-1.45485157370567,3.6257337090161
10.7083187083335,1.8218485558033,2.9351952534914,-3.91926293671131,5.22447368674396
10.7182487083337,1.32479970350862,3.1501716452837,-5.41853990077973,6.40618843818287
10.7281787083339,0.698883919268847,2.49897717833519,-5.32260989606381,5.92144423060194
10.7381097083417,0.0272592808306217,1.13466798484325,-3.76449707865715,3.93187649341099
10.7480397083418,-0.417841445803642,-0.378344088792801,-2.10811653971672,2.18217576477765
10.757969708342,-0.648005687892437,-1.95564629852772,-0.638711904063821,2.15694615437636
10.7678997083422,-0.8655938847363,-3.76705172717571,0.492597586289048,3.89648352627445
10.7778297083423,-1.11880945891142,-5.86453510522842,1.39070513293147,6.1301359995165
10.7877597083425,-1.37153035864234,-8.15231728613377,1.8826619374752,8.47854873367435
10.7976897083427,-1.64686624199152,-10.4508443105221,1.54253174185753,10.6916658849976
10.8076207083359,-1.75636661097407,-12.6536155772209,0.540446448326111,12.7863557439851
10.8175507083361,-1.59697765186429,-14.3229839515686,-0.764304906874895,14.4319911615868
10.8274807083362,-1.27464915812016,-15.0660691666603,-1.89797915741801,15.2385529330341
10.8374107083364,-0.965392114967108,-15.1730030465126,-3.3319036924839,15.5644976019501
10.8473407083366,-0.804867626577616,-14.9833345735073,-4.3505097091198,15.6229018292735
10.8572707083367,-0.861475106030703,-14.2632371020317,-4.35658087313175,14.9386033112611
10.8672017083445,-0.981092619895935,-12.6576431393623,-4.3062047713995,13.4060386432937
10.8771317083447,-1.21121724709868,-10.342971367836,-4.31020309746265,11.2704017087645
10.8870617083448,-1.54502601787448,-8.30869814515114,-3.64354976177216,9.20309866999463
10.896991708345,-1.77982637107372,-6.79865060985088,-2.66215191721916,7.51508382231023
10.9069217083452,-1.96287945047021,-5.91771903991699,-2.02771966338158,6.5562139536274
10.9168517083453,-2.05653985843062,-5.62363976061344,-1.60309252381325,6.19875680974598
10.9267817083455,-2.12819412410259,-5.80480930566788,-1.02070692121983,6.26632778619657
10.9367127083387,-2.39005188301206,-6.38761532306671,-0.799257734790444,6.86678894721459
10.9466427083389,-2.70033657431603,-7.02171370089054,-0.857866058349609,7.57180395189489
10.9565727083391,-2.78116585224867,-7.24275599420071,0.59730828166008,7.78133504435994
10.9665027083392,-2.26144734486938,-6.68831131160259,2.22740149319172,7.40330802455231
10.9764327083394,-1.32810396507382,-5.59689050316811,3.21005531966686,6.58737418109976
10.9863627083396,-0.267525318861008,-4.0399126303196,3.85024064898491,5.58720116981152
10.9962927083398,1.09079457163811,-1.37843840539455,2.12385665953159,2.75693531756161
11.0062237083475,2.732990642488,3.00406317472458,-0.257349555641413,4.0693810590128
11.0161537083332,4.34502735972405,9.00265505433083,1.45183908820152,10.1012324753987
11.0260837083333,5.71043758392334,16.9012680852413,0.98438869535923,17.8670361669929
11.0360137083335,6.11690034806728,27.1715059375763,0.011213790178299,27.8515229481804
11.0459437083337,5.43767199039459,37.0156630325317,3.31330194532871,37.5593604337717
11.0558737083338,3.94690272510052,37.9790128612518,3.45075244367123,38.3391595038812
11.065803708334,2.24774000957608,28.0464458656311,3.92616732895374,28.4089818673491
11.0757347083418,1.42224735304713,18.8885051357746,5.1213072180748,19.6220845329781
11.0856647083419,0.739679942876101,12.859503057003,4.08899532794952,13.5142083779612
11.0955947083421,-0.220709879100323,9.27156616330147,3.22495636403561,9.8189100984347
11.1055247083423,-1.31848032519221,8.14945039629936,2.26815600156784,8.56133539683565
11.1154547083424,-2.07775677278638,7.82467557370663,0.957645285129547,8.1522822284776
11.1253847083426,-1.81632907658815,7.47796667575836,-0.993898022174835,7.75930861589454
11.1353147083428,-0.761236434280872,6.99938727736473,-3.1940088057518,7.73127385484643
11.145245708336,0.542762676626444,5.98391361415386,-4.31561118721962,7.39772352714332
11.1551757083362,1.64890092685819,4.34249551534653,-3.66685091614723,5.91793352519681
11.1651057083363,2.04172286778688,2.34015861511231,-1.79597579598427,3.58754842092613
11.1750357083365,1.83682152092457,0.264960145354271,-0.0159616561979055,1.85590192435548
11.1849657083367,1.28555406913161,-2.0886909198761,1.72643486022949,2.99930931216661
11.1948957083368,0.615637183114886,-4.65290080547333,3.14072254478931,5.64735629743297
11.2048267083446,0.0240930866450071,-6.85223157048225,3.88025791525841,7.87464662453264
11.2147567083448,-0.40716830380261,-8.19217950940132,4.16494832038879,9.19915135506454
11.224686708345,-0.697579113095999,-9.03904578566551,3.83449117362499,9.84348961979405
11.2346167083451,-0.884441361129284,-10.0703952240944,3.05877030909061,10.5617788413938
11.2445467083453,-0.859190598875284,-11.2635511529446,2.04859948575497,11.4805292958657
11.2544767083455,-0.555689847171307,-12.3709050393105,1.06497969925404,12.4290894460419
11.2644067083456,-0.115619845613837,-13.3600726640224,-0.0969812610000372,13.3609249268771
11.2743377083389,0.27523443415761,-14.1163012504578,-1.79901693284512,14.2331365802512
11.284267708339,0.501655581146479,-14.1482948756218,-3.69269327044487,14.6308540351967
11.2941977083392,0.382710423991084,-13.1016011738777,-5.70294730067253,14.2941256641403
11.3041277083394,0.0221305418014526,-11.3289323794842,-6.89433210790157,13.2618631358436
11.3140577083395,-0.510895862951875,-9.85711686372757,-6.28297296702862,11.7004066917512
11.3239877083397,-1.03158230379224,-9.14118377923966,-4.72861172318459,10.3433636581129
11.3339187083475,-1.5281032986939,-8.9603510338068,-3.61000428557396,9.78034361780731
11.3438487083477,-2.12243929445744,-8.87964250087738,-2.47352424860001,9.45891757604733
11.3537748333474,-2.69283371955156,-8.98709093570709,-1.20036678828299,9.45833163693446
11.3637048333476,-3.15120601773262,-9.30929473757744,-0.138485455513,9.82915286780452
11.3736348333332,-3.28792444467545,-9.67562455236912,0.666267273277044,10.2407065045212
11.3835648333334,-2.86532921254635,-9.53657133221626,1.28870878815651,10.0407706184034
11.3934948333335,-2.13992217689753,-8.40848321914673,1.06366699934006,8.74146695099484
11.4034258333413,-1.14396184176207,-5.86536657929421,0.666395473480225,6.01292414154577
11.4133558333415,-0.00292488690465689,-2.70377883017063,2.12081566885114,3.43631890526575
11.4232858333417,1.04533334702253,0.460963491797447,4.44619354605675,4.59062590461955
11.4332158333418,2.04160899326205,3.71330178201199,6.22174677193165,7.52774270945174
11.443145833342,3.14663700342178,7.65265984475613,3.22445584237576,8.88040779526916
11.4530758333422,4.85255807697773,13.1991116809845,-3.47407698690891,14.4856163130366
11.4630068333354,6.34162112474442,18.460712313652,0.121777036786079,19.5199612515988
11.4729368333356,7.17091827213764,22.4360564804077,-2.8824106836319,23.7298754865431
11.4828668333357,5.31884428918362,21.2179083824158,-0.501102142184973,21.8801472585098
11.4927968333359,2.72362895786762,17.8047014951706,2.93298851430416,18.2490539934898
11.5027268333361,0.517053456120193,15.4649264574051,5.57216379761696,16.4462854163762
11.5126568333362,-1.29353113308549,13.612914454937,4.03395080924034,14.2568377237403
11.5225868333364,-3.04190810859203,11.1555916714668,4.45744885146618,12.3923073212802
11.5325178333442,-4.22960186094046,8.18203926801682,5.84405113935471,10.9081727252933
11.5424478333443,-4.18040631204844,6.20606161594391,5.17595821917057,9.09843619537479
11.5523778333445,-2.96566977202892,5.6570209300518,4.30292799174786,7.70144611757672
11.5623078333447,-1.34557252183557,5.86775399744511,3.25427254915237,6.84334656511116
11.5722378333448,0.277540722191334,5.95074119031429,2.09892997920513,6.31615837548297
11.582167833345,1.58314723268151,4.53987705051899,1.05910025082529,4.92326437797873
11.5920988333382,2.26746398359537,1.88126445293427,-0.0362544912099838,2.94650016916836
11.6020288333384,2.28495271325111,0.117512077689171,-1.22117578625679,2.59347031815217
11.6119588333386,1.8152751159668,-0.796282598376274,-2.20564400374889,2.9654940894223
11.6218888333387,1.12253808215261,-1.72980110228062,-2.39076100409031,3.15722057797883
11.6318188333389,0.36192437633872,-3.12446260750294,-1.84918838202953,3.64866462039268
11.6417488333391,-0.271026942227036,-5.0228026843071,-1.13588018573821,5.15676509114466
11.6516788333392,-0.684585722833872,-7.32576949954033,-0.610417739152908,7.38296459347977
11.661609833347,-0.908996450901032,-10.0420409059525,-0.516662460118532,10.0963260744822
11.6715398333472,-0.995536996722221,-12.8842344403267,-0.361034649387002,12.9276810388871
11.6814698333474,-0.944147280156612,-14.9837427091599,-0.225142360925674,15.0151473100869
11.6913998333475,-1.00690866172314,-15.5201931703091,-0.441936652064323,15.559099238105
11.7013298333331,-1.26908377826214,-15.2463014030457,-0.735107274055481,15.3166792358242
11.7112598333333,-1.50729320436716,-14.6862632739544,-0.957711943387985,14.7944406424285
11.7211908333411,-1.34448450118303,-13.206007887125,-1.18002659082413,13.326617937188
11.7311208333413,-0.698993700742722,-10.7300886189938,-1.38398565888405,10.8415317307627
11.7410508333414,-0.022381058447063,-8.68257145285607,-1.71721599385142,8.85078407347436
11.7509808333416,0.483793324045837,-7.63152859210968,-2.00976125612855,7.90654317253844
11.7609108333418,0.749166977182031,-7.332218978405,-2.1127403716743,7.66722623802669
11.7708408333419,0.733558638989926,-7.44643556535244,-2.09624376833439,7.77056940269265
11.7807708333421,0.442114626690745,-7.65214996755123,-1.70148435249925,7.85149116224606
11.7907018333353,-0.114414880648255,-7.81354013621807,-1.38553063943982,7.93625827314302
11.8006318333355,-0.726889670267701,-7.91542085230351,-1.63400982275605,8.1149395538529
11.8105618333357,-1.15694032162428,-8.10056358039379,-1.82678360581398,8.38419820676212
11.8204918333358,-1.31141878902912,-8.37764383435249,-1.20019319906831,8.56418117338563
11.830421833336,-1.12601651765406,-8.27604261517525,-0.632178883105517,8.37618318248062
11.8403518333362,-0.512229905202985,-7.45058650374413,-0.488102904707193,7.48410737303668
11.850282833344,0.452250263392925,-5.93943735301495,0.540955156087875,5.98114360737361
11.8602128333441,1.55936295211315,-3.98001375317574,1.82616497039795,4.64833311962467
11.8701428333443,2.75937620311976,-1.59969353735447,1.69645852446556,3.61263725954172
11.8800728333445,4.0155955222249,1.26187650024891,1.50404244482517,4.46984153811171
11.8900028333446,5.00756542503834,4.64570463716984,2.15748092696071,7.16330978054558
11.8999328333448,5.29053148627281,9.1123991060257,1.54454201459885,10.6494671655254
11.909863833338,4.79824299842119,15.45919033885,-2.35335168778896,16.3568935305917
11.9197938333382,3.46914661467075,23.4269396781921,-3.79746952772141,23.9849381015192
11.9297238333384,1.46794524371624,30.8932820892334,-2.16270278289914,31.0036614742623
11.9396538333385,-1.19712012179196,34.4653040313721,-0.922698962241411,34.4984297024637
11.9495838333387,-3.63558146864176,31.8678936553001,2.16609475269914,32.1476603366143
11.9595138333389,-4.53196225941181,26.0430868721008,4.54169144153595,26.8217825078544
11.969443833339,-4.03611310958862,21.2937561249733,4.88085392296314,22.2156925158892
11.9793748333468,-2.91968668341637,17.7392138493061,5.12383438467979,18.6937946153893
11.989304833347,-1.56938566446304,14.5830260038376,4.9815429764986,15.4901061719773
11.9992348333471,-0.302901265919209,11.9703333449364,4.57901714265347,12.8198294668262
12.0091648333473,0.758382993042469,9.79184731900692,3.89124717235565,10.5639586916669
12.0190948333475,1.46128278002143,8.0615953963995,2.86349143266678,8.67895448100708
12.0290248333476,1.64961808785796,6.56278211653233,2.51106161892414,7.21780987550231
12.0389558333409,1.37548906981945,4.80123998880386,1.94554230988026,5.35994500818957
12.048885833341,0.83329401165247,2.76144465565681,1.29831108570099,3.16315778477229
12.0588158333412,0.286711056679487,0.675876148939133,0.690430891960859,1.00782271025262
12.0687458333414,-0.21017992079258,-1.4334297144413,-0.305687756538391,1.48065571617615
12.0786758333416,-0.677052462548018,-3.61086148738861,-0.805084850639105,3.76096827092136
12.0886058333417,-1.00045085057616,-5.79698807001114,-0.381281656846404,5.8950274206417
12.0985368333349,-1.23639053374529,-8.03984550833702,0.42211634516716,8.14530291387124
12.1084668333351,-1.20995117872953,-10.6123619484901,0.0864048904180527,10.6814640282013
12.1183968333353,-0.700752981752157,-13.4331499958038,-1.23300572678447,13.5078079892143
12.1283268333355,0.109400235414505,-15.9269699299335,-2.18515185177326,16.0765427930207
12.1382568333356,0.787987884432078,-17.6327769827843,-3.10815413832665,17.9219522144831
12.1481868333358,1.01516083717346,-18.3612511754036,-3.5440231347084,18.727685287588
12.158116833336,0.740374592095614,-18.8650589704514,-3.525455301404,19.205921992381
12.1680478333437,0.674394903033972,-18.2645826673508,-2.77119430303574,18.4859218423888
12.1779778333439,0.906370173990727,-15.0987925243378,-1.67228028774261,15.2181327351969
12.1879078333441,0.568517615050078,-11.1343826508522,-1.20386751629412,11.2136963705555
12.1978378333442,-0.144522267132998,-7.91941274642944,-0.709244600683451,7.95242182216242
12.2077678333444,-0.689940164387226,-5.54007076978684,-0.0898576712608337,5.58358988158744
12.2176978333446,-1.10350554138422,-4.25187010467053,0.234221332669258,4.39897527834995
12.2276288333378,-1.47467129588127,-4.24711281001568,0.24716180562973,4.50263385254204
12.237558833338,-1.84038013637066,-5.18369700908661,0.0347873517125845,5.50081120274095
12.2474888333381,-2.1188410641253,-6.66228593945503,-0.0493132241070271,6.99127836580376
12.2574188333383,-2.15462660863996,-7.9654531377554,-0.420184498205781,8.26240972870319
12.2673488333385,-1.81290699362755,-8.32163569450379,-1.35321176290512,8.6236555169399
12.2772788333386,-1.26117322638631,-7.62240518152714,-1.14679109014571,7.81068169001676
12.2872098333464,-0.631123606860638,-6.09306066513062,0.731804766654968,6.16921741330273
12.2971398333466,0.128612724244595,-4.1590999352932,1.91497774422169,4.58058874659774
12.3070698333468,1.18179230377078,-2.31978106856346,3.54714145481587,4.4000261085351
12.3169998333469,2.38059035718441,-0.135700426697731,0.914571771025658,2.55383370227632
12.3269298333471,3.44081422358751,3.45687857151032,-2.56729370713234,5.51182446727857
12.3368598333473,4.16513192296028,8.89064754545689,-2.15758164525032,10.0522184749996
12.3467908333405,4.97729380488396,16.027901058197,-6.60274023413658,18.0350559896823
12.356719958334,4.51408410519362,22.4816928291321,-5.5485930866003,23.5921671961878
12.3666499583342,2.87027098685503,26.3434653568268,-0.828520052433014,26.5123191747082
12.3765799583343,1.43980946525931,25.1616846013069,3.41316595673561,25.4329142081696
12.3865099583345,0.946211639642716,18.6288560163975,3.79293325781822,19.0345983841248
12.3964399583347,1.26622098147869,12.5897967267036,3.82475088179112,13.2187373262886
12.4063699583348,1.36651067018509,8.65262903094292,5.25657319664955,10.2160120561098
12.4163009583426,0.863491664528847,6.03683500885964,5.98089060366154,8.5416653640769
12.4262309583428,-0.114927608370781,4.88807348012924,5.4175493824482,7.29769223889124
12.436160958343,-1.26715682834387,5.04043203949928,4.39958714425564,6.80940589275811
12.4460909583431,-2.19705970644951,5.35303295910359,3.3235047519207,6.67290918947596
12.4560209583433,-2.59742733299732,5.00318527579308,1.89293666481972,5.94657051342478
12.4659509583435,-2.39054699599743,4.05442308068276,0.219614330157638,4.71182469020824
12.4758819583367,-1.77239339053631,2.64481550753117,-2.15172156572342,3.8426986736008
12.4858119583369,-1.03059543997049,0.854508002400398,-4.8554658973217,5.03665166227607
12.495741958337,-0.372810283899307,-1.16291646838188,-6.03136961638927,6.15376158700665
12.5056719583372,-0.00621559023857117,-3.1685915440321,-5.8591246765852,6.66103242615162
12.5156019583374,-0.118036572933197,-4.84095135390759,-4.69110592782497,6.7420484624129
12.5255319583375,-0.60957983314991,-6.49027137994766,-3.4051003074646,7.3545848463558
12.5354629583453,-1.32692414313555,-8.41945493459702,-2.19609608530998,8.80174909283717
12.5453929583455,-2.02061617344618,-10.6550349283218,-1.00600687488914,10.8914970906884
12.5553229583456,-2.60430131971836,-12.8665922212601,-0.389263252392411,13.1332824012788
12.5652529583458,-3.01540414184332,-14.5552026128769,-0.473554885983467,14.8718135905001
12.575182958346,-3.26288432836533,-15.3563319683075,-0.129440982341766,15.6996847302442
12.5851129583461,-3.38951016873121,-15.4092562866211,0.084081791639328,15.7778651356383
12.5950439583394,-3.23747729927301,-14.7348793637753,0.174102161675692,15.0873536675925
12.6049739583395,-2.6668185800314,-13.213687620163,0.18455968759954,13.4813769378478
12.6149039583397,-1.8534793612361,-11.1780403017998,-0.456339367479086,11.3398508080794
12.6248339583399,-1.0673358348012,-9.14990080833435,-1.06102405786514,9.27284544452117
12.63476395834,-0.503840831816196,-7.56274545550346,-1.36855485677719,7.70207224093308
12.6446939583402,-0.244186011403799,-6.45036764144898,-1.62444480121136,6.656251980672
12.6546249583334,-0.296004036515951,-5.87056533873081,-1.90621569156647,6.17938621941658
12.6645549583336,-0.656883076876402,-5.97765300035477,-2.0233868765831,6.34491333444876
12.6744849583338,-1.04611687391996,-6.55302837610245,-1.94518095195293,6.91522019517416
12.6844149583339,-1.3330609421432,-7.19263716995716,-1.9769132065773,7.57755018198209
12.6943449583341,-1.68099220052361,-7.77058649003506,-2.61661087810993,8.36985075522735
12.7042749583343,-2.08456366270781,-8.13878156661987,-2.10370773911476,8.66087508884896
12.7142059583421,-2.24185800299048,-7.83050875604153,-0.0300220171362162,8.1451639643121
12.7241359583422,-1.85307444155216,-6.56790778577328,1.56954938650131,7.00248404818046
12.7340659583424,-0.827935477048159,-4.49029792428017,2.67697928667068,5.29286979853214
12.7439959583426,0.461534326225519,-1.5359150326252,1.84417731821537,2.44398013550613
12.7539259583427,1.92678312644362,2.75906659305096,0.238735894784331,3.37371257055134
12.7638559583429,3.35543639659882,8.41730082035065,-0.151711857318878,9.06272161105851
12.7737869583361,4.50765129089356,15.680024471283,-0.938961019143462,16.3420847928224
12.7837169583363,5.16876205086708,24.8856398892403,-1.46183022558689,25.4587533364042
12.7936469583365,5.67067242443562,35.4015976238251,-0.0977590868622065,35.8530221446329
12.8035769583366,6.00179907739163,41.4684674406052,0.975059462785721,41.9118852474316
12.8135069583368,5.78110761702061,35.997255821228,1.80707278802991,36.503275798204
12.823436958337,4.64796049296856,24.8717352104187,4.63375702142715,25.7231112670105
12.8333669583371,3.12619689166546,17.7523338317871,4.39542275726795,18.5536574479476
12.8432979583449,1.11632687732577,13.2410666227341,3.78723923921585,13.8172071005605
12.8532279583451,-0.773599275425077,10.7744023275375,3.35404709815979,11.3108723488181
12.8631579583453,-2.07850697055459,9.48975033760071,3.52832102179527,10.3355987697607
12.8730879583454,-2.61061631262302,8.35438010215759,2.86771896958351,9.21058068264804
12.8830179583456,-2.34143330812454,6.81787917852402,2.31887241125107,7.57251316862557
12.8929479583458,-1.49097011715174,5.20772263348103,1.57602225422859,5.64156122570107
12.902878958339,-0.614914905801416,3.66315255224705,0.635213441848755,3.768328950492
12.9128089583392,-0.107760164514184,1.92689553916454,-0.217598319835961,1.94213483072205
12.9227389583393,-0.0681045672297478,-0.318121275901794,-0.940990076065064,0.995641351849084
12.9326689583395,-0.325114253461361,-2.78735425293446,-1.4505994784832,3.15900013550669
12.9425989583397,-0.496433615572751,-4.96565609157085,-1.52598236739635,5.21850638976613
12.9525289583398,-0.539640446193516,-6.89301356077194,-1.05868049383163,6.99468742319294
12.9624599583476,-0.518655958659947,-8.78874227106571,-0.41217267986387,8.81367579552918
12.9723899583332,-0.529385562837124,-10.7445651555061,0.125130926594138,10.7583264127766
12.9823199583334,-0.508597249388695,-12.6845146036148,0.731411760672927,12.7157597120681
12.9922499583336,-0.229995805732906,-14.3421955633163,1.06290108717978,14.3833664476782
13.0021799583337,0.392809844501317,-15.3135701107979,1.08826747812331,15.3572150866034
13.0121099583339,1.23003431797028,-15.296705571413,0.861140426024795,15.3702227893813
13.0220409583417,1.96109765768051,-14.3976107954979,0.650245463848114,14.5450995116861
13.0319709583418,2.38841510117054,-12.8531237447262,0.624727045297623,13.0880709263768
13.041900958342,2.18919344723225,-11.0608457279205,0.55369974732399,11.2889972794952
13.0518309583422,1.34044056683779,-9.6393858486414,0.27686105646193,9.73607685347633
13.0617609583423,0.371758954524994,-8.70416288137436,-0.461969797611237,8.72433792786993
13.0716909583425,-0.351897753663361,-8.27394521892071,-1.38202157914639,8.39595052152884
13.0816219583357,-0.973329564034939,-8.31741634368897,-1.93381454944611,8.59455780050016
13.0915519583359,-1.54201864868402,-8.71656014800072,-2.12170956194401,9.10263114664371
13.1014819583361,-1.9398278260231,-9.29131045639515,-2.165084207654,9.7354492252779
13.1114119583362,-2.02479605555534,-9.81704589486122,-2.0723169618845,10.2356576124311
13.1213419583364,-1.83836401641369,-10.2322508311272,-1.72879421174526,10.5388457031361
13.1312719583366,-1.5164250934124,-10.5821014380455,-1.10614935994148,10.7472779025907
13.1412029583444,-1.09860323578119,-10.7452948880196,-0.374260978102684,10.8077917531704
13.1511329583445,-0.500669886767864,-10.3057058930397,0.292019305229187,10.321992034679
13.1610629583447,0.0133445201301947,-8.9279176980257,0.210856370553374,8.93041728632772
13.1709929583449,0.711595619916916,-6.65293916523457,0.221590104326606,6.69455525310923
13.180922958345,1.5210367923975,-3.43780378460884,0.545716470703483,3.79866479854367
13.1908529583452,2.10307360857725,-0.161859115362167,2.27220519840717,3.10032795684401
13.2007839583384,2.47741147756577,2.90348463356495,3.5257716357708,5.1960423664678
13.2107139583386,2.69487001240253,6.05866266489029,2.9441596198082,7.25519079953044
13.2206439583388,2.86394254535437,9.69002449035645,1.0673138346523,10.1606053140765
13.2305739583389,2.93950552850962,13.6029180550575,-0.768235332146287,13.9380865935862
13.2405039583391,2.75380731493235,16.9984838926792,-0.428321410417557,17.2254279658902
13.2504339583393,2.63699836492538,20.4706505942345,-3.02773796617985,20.8606925417086
13.2603649583471,1.99099973380566,23.4516476726532,-2.32192100331187,23.650267982581
13.2702949583472,0.764593613147736,24.7107052302361,0.899850236177445,24.7389022961091
13.2802249583474,-1.12958733916283,22.9890721035004,3.20475131034851,23.2388432306325
13.2901549583476,-3.56360282868147,17.6179484438896,6.25039052724838,19.0304691018182
13.3000849583332,-5.02218404889107,13.0223842656612,6.28351968169212,15.3064510639694
13.3100149583333,-5.3876952534914,10.4368250262737,5.930081807971,13.1575243500735
13.3199449583335,-5.15699862241745,8.51459322631359,6.15483299016953,11.7036277169978
13.3298759583413,-4.2991854813695,6.41863070905209,6.33550844550133,9.99102013036824
13.3398059583415,-2.72019664227963,4.0804016751051,5.7139663785696,7.52984457862801
13.3497402083449,-0.943391819894314,1.96301145136356,5.11011096954346,5.55487499454996
13.3596702083451,0.816129217743874,0.556043896079064,4.51431711673737,4.62107246695937
13.3696002083452,2.4703781542182,-0.40957172870636,3.60268532574177,4.38746610039429
13.3795302083454,3.76826443970203,-1.64875343084335,2.43363688230515,4.77920424737806
13.3894612083386,4.50443795353174,-3.04744600653648,1.23901564121246,5.57781751217638
13.3993912083388,4.50737822592259,-4.36600600004196,-0.0120306462049484,6.27523797161283
13.409321208339,3.93446540504694,-5.6537956058979,-1.39055778309703,7.02702452855498
13.4192512083391,3.11132654517889,-7.26020583987236,-2.82615637600422,8.3891657254867
13.4291812083393,2.13771777659655,-9.39765201330185,-3.82889655768871,10.3704459646138
13.4391112083395,1.02429009497166,-12.0867537474632,-3.86455697178841,12.7308125011199
13.4490422083472,0.000434735915623605,-14.6718159735203,-3.33592306852341,15.0462808317852
13.4589722083474,-0.864579539000988,-16.050180119276,-2.95072545826435,16.3420488424956
13.4689022083476,-1.48448672443628,-16.0823246026039,-2.97568195939064,16.422531734845
13.4788322083332,-1.76205989867449,-14.8805837917328,-2.9444338542223,15.2710942565092
13.4887622083334,-1.6828397744894,-12.7106095576286,-2.56326906859875,13.0752397053025
13.4986932083411,-1.28746800899506,-10.4981143712997,-1.9942192107439,10.7631263807305
13.5086232083413,-0.572712261378765,-8.78723018109799,-1.32140393301845,8.90446640423386
13.5185532083415,0.0736018452979624,-7.83489826083183,-0.959054171741009,7.89372110563521
13.5284832083416,0.416100729703903,-7.25193846166134,-1.04882632747293,7.33919531925561
13.5384132083418,0.429453102461994,-6.78354081988335,-1.13573948711157,6.89135401824796
13.548343208342,0.131629266254604,-6.48716592371464,-0.89428851082921,6.54983968705649
13.5582742083352,-0.365112753398716,-6.41989429235458,-0.761908717900515,6.47524941157591
13.5682042083354,-0.918516010344029,-6.61427328228951,-1.00534935548902,6.75300007705089
13.5781342083355,-1.45274160593748,-7.18762318253517,-1.21493622243404,7.43293045926848
13.5880642083357,-1.74941938787699,-7.95150226593018,-1.73846843004227,8.32521044550985
13.5979942083359,-1.55748394936323,-8.30896536290646,-2.4111309492588,8.79080281367845
13.607924208336,-0.902828807830811,-7.72946770012379,-2.89314792573452,8.3024138480136
13.6178552083438,0.1696484836936,-6.00801408290863,-2.5078824877739,6.51264066265988
13.627785208344,1.54720439806581,-3.19543084859848,-1.52541591838002,3.86413165945677
13.6377152083442,2.62723906964064,0.37958662211895,-0.0894740208238363,2.65602649330541
13.6476452083443,3.42298547834158,4.8956941562891,-0.847161049023271,6.03343456911922
